"","stimnum","truth","type","level","stimtext","hit","response","rt","trialnum","uniqueid"
"1",106,"F","P",9,"A box turtle can hop",TRUE,"F",4168,1,"1:1"
"2",96,"F","P",9,"A boa constrictor eats leaves",TRUE,"F",2015,2,"1:1"
"3",60,"T","S",1,"A rattlesnake is a reptile",TRUE,"T",1049,3,"1:1"
"4",142,"F","S",9,"A newt is a plane",TRUE,"F",1267,4,"1:1"
"5",143,"F","S",9,"A sea turtle is a boat",TRUE,"F",1502,5,"1:1"
"6",30,"T","P",2,"An antilope has a mouth",TRUE,"T",1142,6,"1:1"
"7",44,"T","S",0,"A herring is a herring",TRUE,"T",1032,7,"1:1"
"8",72,"T","S",2,"A frog is an animal",TRUE,"T",894,8,"1:1"
"9",144,"F","S",9,"A frog is a chickadee",TRUE,"F",970,9,"1:1"
"10",18,"T","P",1,"A pig gives birth to live young",TRUE,"T",2016,10,"1:1"
"11",139,"F","S",9,"A sardine is an anaconda",TRUE,"F",969,11,"1:1"
"12",119,"F","S",9,"A salamander is a ferret",TRUE,"F",1033,12,"1:1"
"13",133,"F","S",9,"A hummingbird is a plant",TRUE,"F",861,13,"1:1"
"14",68,"T","S",2,"A pufferfish is an animal",TRUE,"T",969,14,"1:1"
"15",140,"F","S",9,"A pufferfish is a fox",TRUE,"F",924,15,"1:1"
"16",84,"F","P",9,"A crocodile is small",TRUE,"F",751,16,"1:1"
"17",95,"F","P",9,"A snapping turtle has six legs",TRUE,"F",1236,17,"1:1"
"18",112,"F","S",9,"A chipmunk is a plant",TRUE,"F",955,18,"1:1"
"19",132,"F","S",9,"A rattlesnake is a fish",TRUE,"F",766,19,"1:1"
"20",16,"T","P",1,"A deer has hair",TRUE,"T",830,20,"1:1"
"21",75,"F","P",9,"An owl can swim",TRUE,"F",1126,21,"1:1"
"22",135,"F","S",9,"A parrot is a rock",TRUE,"F",719,22,"1:1"
"23",43,"T","S",0,"A cod is a cod",TRUE,"T",736,23,"1:1"
"24",31,"T","P",2,"A trout can reproduce",TRUE,"T",1099,24,"1:1"
"25",12,"T","P",0,"A crocodile has sharp teeth",TRUE,"T",877,25,"1:1"
"26",99,"F","P",9,"A chicken has sharp teeth",TRUE,"F",1018,26,"1:1"
"27",74,"F","P",9,"A pigeon barks",TRUE,"F",922,27,"1:1"
"28",17,"T","P",1,"A cat is warm-blooded",TRUE,"T",954,28,"1:1"
"29",71,"T","S",2,"A sea turtle is an animal",TRUE,"T",970,29,"1:1"
"30",58,"T","S",1,"A komodo dragon is a reptile",TRUE,"T",940,30,"1:1"
"31",37,"T","S",0,"An ostrich is an ostrich",TRUE,"T",783,31,"1:1"
"32",45,"T","S",0,"A clownfish is a clownfish",TRUE,"T",680,32,"1:1"
"33",137,"F","S",9,"A rabbit is a building",TRUE,"F",735,33,"1:1"
"34",53,"T","S",1,"A wolf is a mammal",TRUE,"T",906,34,"1:1"
"35",64,"T","S",2,"A lion is an animal",TRUE,"T",737,35,"1:1"
"36",141,"F","S",9,"A piranha is an ostrich",TRUE,"F",969,36,"1:1"
"37",40,"T","S",0,"A chipmunk is a chipmunk",TRUE,"T",580,37,"1:1"
"38",138,"F","S",9,"A mouse is a leaf",TRUE,"F",705,38,"1:1"
"39",110,"F","S",9,"A penguin is a shark",TRUE,"F",799,39,"1:1"
"40",101,"F","P",9,"A rat has feathers",FALSE,"T",1033,40,"1:1"
"41",122,"F","S",9,"A sparrow is a reptile",TRUE,"F",1018,41,"1:1"
"42",26,"T","P",2,"A woodpecker has eyes",TRUE,"T",1173,42,"1:1"
"43",3,"T","P",0,"An owl is nocturnal",TRUE,"T",1111,43,"1:1"
"44",25,"T","P",2,"A robin breathes",FALSE,"F",1032,44,"1:1"
"45",103,"F","P",9,"A trout is furry",TRUE,"F",1143,45,"1:1"
"46",67,"T","S",2,"A sardine is an animal",TRUE,"T",800,46,"1:1"
"47",98,"F","P",9,"A woodpecker has fingers",TRUE,"F",1157,47,"1:1"
"48",1,"T","P",0,"A cardinal is red",FALSE,"F",1609,48,"1:1"
"49",15,"T","P",1,"A falcon can fly",TRUE,"T",1156,49,"1:1"
"50",7,"T","P",0,"A salmon swims upstream",TRUE,"T",1391,50,"1:1"
"51",100,"F","P",9,"A monkey has antlers",TRUE,"F",1237,51,"1:1"
"52",104,"F","P",9,"A barracuda is friendly",TRUE,"F",1219,52,"1:1"
"53",97,"F","P",9,"A robin has a shell",TRUE,"F",860,53,"1:1"
"54",86,"F","P",9,"A blue jay has gills",TRUE,"F",1251,54,"1:1"
"55",134,"F","S",9,"A peacock is a sport",TRUE,"F",829,55,"1:1"
"56",51,"T","S",1,"A crane is a bird",TRUE,"T",675,56,"1:1"
"57",80,"F","P",9,"A tiger shark has fur",TRUE,"F",782,57,"1:1"
"58",11,"T","P",0,"A garter snake has no legs",TRUE,"T",1376,58,"1:1"
"59",129,"F","S",9,"A mackerel is a reptile",TRUE,"F",1593,59,"1:1"
"60",130,"F","S",9,"A komodo dragon is a mammal",TRUE,"F",1424,60,"1:1"
"61",29,"T","P",2,"A rat has bones",TRUE,"T",844,61,"1:1"
"62",36,"T","P",2,"A gecko is alive",TRUE,"T",783,62,"1:1"
"63",127,"F","S",9,"A minnow is a mammal",FALSE,"T",1344,63,"1:1"
"64",136,"F","S",9,"A lion is a car",TRUE,"F",878,64,"1:1"
"65",85,"F","P",9,"An eagle eats grass",TRUE,"F",1049,65,"1:1"
"66",81,"F","P",9,"A goldfish is purple",TRUE,"F",955,66,"1:1"
"67",126,"F","S",9,"A goat is a fish",TRUE,"F",877,67,"1:1"
"68",90,"F","P",9,"A pig has scales",TRUE,"F",970,68,"1:1"
"69",8,"T","P",0,"A tiger shark is dangerous",TRUE,"T",1000,69,"1:1"
"70",14,"T","P",1,"A blue jay has a beak",TRUE,"T",1251,70,"1:1"
"71",125,"F","S",9,"A wolf is a reptile",TRUE,"F",891,71,"1:1"
"72",49,"T","S",1,"A chickadee is a bird",TRUE,"T",1017,72,"1:1"
"73",33,"T","P",2,"A parrotfish has muscles",FALSE,"F",1032,73,"1:1"
"74",63,"T","S",2,"A parrot is an animal",TRUE,"T",923,74,"1:1"
"75",32,"T","P",2,"A barracuda can move",FALSE,"F",706,75,"1:1"
"76",102,"F","P",9,"An antilope is scaly",TRUE,"F",1282,76,"1:1"
"77",89,"F","P",9,"A cat has no legs",TRUE,"F",784,77,"1:1"
"78",28,"T","P",2,"A monkey has a heart",TRUE,"T",1204,78,"1:1"
"79",73,"F","P",9,"A cardinal is blue",TRUE,"F",1813,79,"1:1"
"80",50,"T","S",1,"A sparrow is a bird",TRUE,"T",799,80,"1:1"
"81",13,"T","P",1,"An eagle has wings",TRUE,"T",706,81,"1:1"
"82",76,"F","P",9,"A squirrel has a beak",FALSE,"T",721,82,"1:1"
"83",34,"T","P",2,"A box turtle can see",TRUE,"T",1111,83,"1:1"
"84",116,"F","S",9,"A herring is an antelope",TRUE,"F",1047,84,"1:1"
"85",20,"T","P",1,"An angelfish has fins",TRUE,"T",1252,85,"1:1"
"86",35,"T","P",2,"A cobra has blood",TRUE,"T",908,86,"1:1"
"87",111,"F","S",9,"A mockingbird is an eagle",TRUE,"F",985,87,"1:1"
"88",83,"F","P",9,"A garter snake is tall",TRUE,"F",1531,88,"1:1"
"89",105,"F","P",9,"A parrotfish hunts rabbits",TRUE,"F",1471,89,"1:1"
"90",92,"F","P",9,"An angelfish climbs trees",TRUE,"F",1080,90,"1:1"
"91",78,"F","P",9,"A dog lays eggs",TRUE,"F",1018,91,"1:1"
"92",88,"F","P",9,"A deer is slimy",TRUE,"F",891,92,"1:1"
"93",69,"T","S",2,"A piranha is an animal",TRUE,"T",1081,93,"1:1"
"94",46,"T","S",0,"A monitor lizard is a monitor lizard",TRUE,"T",1267,94,"1:1"
"95",131,"F","S",9,"A chameleon is a bird",TRUE,"F",909,95,"1:1"
"96",118,"F","S",9,"A monitor lizard is a pigeon",TRUE,"F",1063,96,"1:1"
"97",109,"F","S",9,"An ostrich is a pig",TRUE,"F",1158,97,"1:1"
"98",65,"T","S",2,"A rabbit is an animal",TRUE,"T",783,98,"1:1"
"99",21,"T","P",1,"A catfish can swim",TRUE,"T",721,99,"1:1"
"100",120,"F","S",9,"An anaconda is a mockingbird",TRUE,"F",860,100,"1:1"
"101",52,"T","S",1,"A bear is a mammal",TRUE,"T",629,101,"1:1"
"102",23,"T","P",1,"A snapping turtle has scaly skin",FALSE,"F",862,102,"1:1"
"103",61,"T","S",2,"A hummingbird is an animal",TRUE,"T",814,103,"1:1"
"104",54,"T","S",1,"A goat is a mammal",TRUE,"T",659,104,"1:1"
"105",77,"F","P",9,"A moose has wings",TRUE,"F",720,105,"1:1"
"106",79,"F","P",9,"A salmon has legs",TRUE,"F",643,106,"1:1"
"107",59,"T","S",1,"A chameleon is a reptile",TRUE,"T",862,107,"1:1"
"108",113,"F","S",9,"A ferret is a mineral",TRUE,"F",1049,108,"1:1"
"109",114,"F","S",9,"A fox is a tree",TRUE,"F",752,109,"1:1"
"110",5,"T","P",0,"A moose has antlers",TRUE,"T",1148,110,"1:1"
"111",4,"T","P",0,"A squirrel climbs trees",TRUE,"T",846,111,"1:1"
"112",128,"F","S",9,"A sturgeon is a bird",TRUE,"F",1173,112,"1:1"
"113",107,"F","P",9,"A cobra has legs",TRUE,"F",798,113,"1:1"
"114",42,"T","S",0,"A fox is a fox",TRUE,"T",783,114,"1:1"
"115",39,"T","S",0,"A mockingbird is a mockingbird",TRUE,"T",640,115,"1:1"
"116",57,"T","S",1,"A mackerel is a fish",TRUE,"T",738,116,"1:1"
"117",10,"T","P",0,"A tortoise has a shell",TRUE,"T",969,117,"1:1"
"118",123,"F","S",9,"A crane is a fish",TRUE,"F",829,118,"1:1"
"119",91,"F","P",9,"A flounder can talk",TRUE,"F",783,119,"1:1"
"120",70,"T","S",2,"A newt is an animal",TRUE,"T",955,120,"1:1"
"121",6,"T","P",0,"A dog barks",TRUE,"T",658,121,"1:1"
"122",93,"F","P",9,"A catfish can fly",TRUE,"F",737,122,"1:1"
"123",94,"F","P",9,"An alligator walks on two legs",TRUE,"F",1163,123,"1:1"
"124",48,"T","S",0,"An anaconda is an anaconda",TRUE,"T",753,124,"1:1"
"125",22,"T","P",1,"An alligator is cold-blooded",TRUE,"T",828,125,"1:1"
"126",124,"F","S",9,"A bear is a bird",TRUE,"F",1237,126,"1:1"
"127",115,"F","S",9,"A cod is a rock",TRUE,"F",814,127,"1:1"
"128",41,"T","S",0,"A ferret is a ferret",TRUE,"T",673,128,"1:1"
"129",62,"T","S",2,"A peacock is an animal",TRUE,"T",768,129,"1:1"
"130",121,"F","S",9,"A chickadee is a mammal",FALSE,"T",736,130,"1:1"
"131",38,"T","S",0,"A penguin is a penguin",TRUE,"T",596,131,"1:1"
"132",2,"T","P",0,"A pigeon coos",TRUE,"T",1158,132,"1:1"
"133",108,"F","P",9,"A gecko has fangs",TRUE,"F",969,133,"1:1"
"134",19,"T","P",1,"A flounder has gills",TRUE,"T",893,134,"1:1"
"135",24,"T","P",1,"A boa constrictor lays eggs",TRUE,"T",924,135,"1:1"
"136",56,"T","S",1,"A sturgeon is a fish",FALSE,"F",921,136,"1:1"
"137",9,"T","P",0,"A goldfish is orange",TRUE,"T",971,137,"1:1"
"138",87,"F","P",9,"A falcon lives under water",TRUE,"F",844,138,"1:1"
"139",55,"T","S",1,"A minnow is a fish",FALSE,"F",846,139,"1:1"
"140",117,"F","S",9,"A clownfish is a mammal",FALSE,"T",1112,140,"1:1"
"141",27,"T","P",2,"A chicken has a brain",TRUE,"T",782,141,"1:1"
"142",66,"T","S",2,"A mouse is an animal",TRUE,"T",846,142,"1:1"
"143",47,"T","S",0,"A salamander is a salamander",TRUE,"T",831,143,"1:1"
"144",82,"F","P",9,"A tortoise runs fast",TRUE,"F",925,144,"1:1"
"145",121,"F","S",9,"A chickadee is a mammal",FALSE,"T",3479,1,"2:2"
"146",22,"T","P",1,"An alligator is cold-blooded",TRUE,"T",3662,2,"2:2"
"147",72,"T","S",2,"A frog is an animal",TRUE,"T",2257,3,"2:2"
"148",47,"T","S",0,"A salamander is a salamander",TRUE,"T",2310,4,"2:2"
"149",96,"F","P",9,"A boa constrictor eats leaves",TRUE,"F",3146,5,"2:2"
"150",142,"F","S",9,"A newt is a plane",TRUE,"F",2059,6,"2:2"
"151",69,"T","S",2,"A piranha is an animal",TRUE,"T",1637,7,"2:2"
"152",135,"F","S",9,"A parrot is a rock",TRUE,"F",1122,8,"2:2"
"153",125,"F","S",9,"A wolf is a reptile",TRUE,"F",1490,9,"2:2"
"154",14,"T","P",1,"A blue jay has a beak",TRUE,"T",1691,10,"2:2"
"155",103,"F","P",9,"A trout is furry",TRUE,"F",1755,11,"2:2"
"156",137,"F","S",9,"A rabbit is a building",TRUE,"F",1330,12,"2:2"
"157",134,"F","S",9,"A peacock is a sport",TRUE,"F",1258,13,"2:2"
"158",70,"T","S",2,"A newt is an animal",TRUE,"T",934,14,"2:2"
"159",24,"T","P",1,"A boa constrictor lays eggs",TRUE,"T",1566,15,"2:2"
"160",25,"T","P",2,"A robin breathes",TRUE,"T",1205,16,"2:2"
"161",132,"F","S",9,"A rattlesnake is a fish",TRUE,"F",1098,17,"2:2"
"162",32,"T","P",2,"A barracuda can move",TRUE,"T",1347,18,"2:2"
"163",81,"F","P",9,"A goldfish is purple",TRUE,"F",1556,19,"2:2"
"164",76,"F","P",9,"A squirrel has a beak",TRUE,"F",1434,20,"2:2"
"165",86,"F","P",9,"A blue jay has gills",TRUE,"F",1645,21,"2:2"
"166",62,"T","S",2,"A peacock is an animal",TRUE,"T",1122,22,"2:2"
"167",107,"F","P",9,"A cobra has legs",TRUE,"F",994,23,"2:2"
"168",99,"F","P",9,"A chicken has sharp teeth",TRUE,"F",1226,24,"2:2"
"169",102,"F","P",9,"An antilope is scaly",TRUE,"F",3015,25,"2:2"
"170",108,"F","P",9,"A gecko has fangs",TRUE,"F",1324,26,"2:2"
"171",39,"T","S",0,"A mockingbird is a mockingbird",TRUE,"T",1211,27,"2:2"
"172",112,"F","S",9,"A chipmunk is a plant",TRUE,"F",1074,28,"2:2"
"173",10,"T","P",0,"A tortoise has a shell",TRUE,"T",1507,29,"2:2"
"174",40,"T","S",0,"A chipmunk is a chipmunk",TRUE,"T",1058,30,"2:2"
"175",8,"T","P",0,"A tiger shark is dangerous",TRUE,"T",1984,31,"2:2"
"176",124,"F","S",9,"A bear is a bird",TRUE,"F",1100,32,"2:2"
"177",7,"T","P",0,"A salmon swims upstream",TRUE,"T",1486,33,"2:2"
"178",17,"T","P",1,"A cat is warm-blooded",TRUE,"T",1146,34,"2:2"
"179",87,"F","P",9,"A falcon lives under water",TRUE,"F",1155,35,"2:2"
"180",138,"F","S",9,"A mouse is a leaf",TRUE,"F",902,36,"2:2"
"181",117,"F","S",9,"A clownfish is a mammal",FALSE,"T",1299,37,"2:2"
"182",71,"T","S",2,"A sea turtle is an animal",TRUE,"T",1139,38,"2:2"
"183",55,"T","S",1,"A minnow is a fish",TRUE,"T",1669,39,"2:2"
"184",59,"T","S",1,"A chameleon is a reptile",FALSE,"F",1317,40,"2:2"
"185",92,"F","P",9,"An angelfish climbs trees",TRUE,"F",1418,41,"2:2"
"186",28,"T","P",2,"A monkey has a heart",TRUE,"T",1083,42,"2:2"
"187",38,"T","S",0,"A penguin is a penguin",TRUE,"T",877,43,"2:2"
"188",60,"T","S",1,"A rattlesnake is a reptile",TRUE,"T",1253,44,"2:2"
"189",128,"F","S",9,"A sturgeon is a bird",FALSE,"T",1763,45,"2:2"
"190",15,"T","P",1,"A falcon can fly",TRUE,"T",1083,46,"2:2"
"191",5,"T","P",0,"A moose has antlers",TRUE,"T",1163,47,"2:2"
"192",101,"F","P",9,"A rat has feathers",TRUE,"F",1139,48,"2:2"
"193",95,"F","P",9,"A snapping turtle has six legs",TRUE,"F",2356,49,"2:2"
"194",57,"T","S",1,"A mackerel is a fish",TRUE,"T",1190,50,"2:2"
"195",43,"T","S",0,"A cod is a cod",TRUE,"T",717,51,"2:2"
"196",58,"T","S",1,"A komodo dragon is a reptile",TRUE,"T",1254,52,"2:2"
"197",116,"F","S",9,"A herring is an antelope",TRUE,"F",1066,53,"2:2"
"198",79,"F","P",9,"A salmon has legs",TRUE,"F",1125,54,"2:2"
"199",45,"T","S",0,"A clownfish is a clownfish",TRUE,"T",1106,55,"2:2"
"200",114,"F","S",9,"A fox is a tree",TRUE,"F",970,56,"2:2"
"201",11,"T","P",0,"A garter snake has no legs",TRUE,"T",2102,57,"2:2"
"202",122,"F","S",9,"A sparrow is a reptile",TRUE,"F",1076,58,"2:2"
"203",35,"T","P",2,"A cobra has blood",TRUE,"T",1811,59,"2:2"
"204",6,"T","P",0,"A dog barks",TRUE,"T",1146,60,"2:2"
"205",93,"F","P",9,"A catfish can fly",FALSE,"T",1835,61,"2:2"
"206",42,"T","S",0,"A fox is a fox",TRUE,"T",1421,62,"2:2"
"207",143,"F","S",9,"A sea turtle is a boat",TRUE,"F",1512,63,"2:2"
"208",113,"F","S",9,"A ferret is a mineral",TRUE,"F",1530,64,"2:2"
"209",4,"T","P",0,"A squirrel climbs trees",TRUE,"T",1299,65,"2:2"
"210",139,"F","S",9,"A sardine is an anaconda",TRUE,"F",1658,66,"2:2"
"211",53,"T","S",1,"A wolf is a mammal",TRUE,"T",979,67,"2:2"
"212",41,"T","S",0,"A ferret is a ferret",TRUE,"T",819,68,"2:2"
"213",127,"F","S",9,"A minnow is a mammal",FALSE,"T",1738,69,"2:2"
"214",27,"T","P",2,"A chicken has a brain",TRUE,"T",1463,70,"2:2"
"215",129,"F","S",9,"A mackerel is a reptile",TRUE,"F",1274,71,"2:2"
"216",20,"T","P",1,"An angelfish has fins",TRUE,"T",1406,72,"2:2"
"217",23,"T","P",1,"A snapping turtle has scaly skin",TRUE,"T",1903,73,"2:2"
"218",89,"F","P",9,"A cat has no legs",TRUE,"F",1558,74,"2:2"
"219",91,"F","P",9,"A flounder can talk",TRUE,"F",1380,75,"2:2"
"220",37,"T","S",0,"An ostrich is an ostrich",TRUE,"T",1078,76,"2:2"
"221",46,"T","S",0,"A monitor lizard is a monitor lizard",TRUE,"T",1323,77,"2:2"
"222",33,"T","P",2,"A parrotfish has muscles",TRUE,"T",1504,78,"2:2"
"223",80,"F","P",9,"A tiger shark has fur",TRUE,"F",1211,79,"2:2"
"224",115,"F","S",9,"A cod is a rock",TRUE,"F",1059,80,"2:2"
"225",73,"F","P",9,"A cardinal is blue",FALSE,"T",1247,81,"2:2"
"226",126,"F","S",9,"A goat is a fish",TRUE,"F",1331,82,"2:2"
"227",123,"F","S",9,"A crane is a fish",TRUE,"F",1239,83,"2:2"
"228",100,"F","P",9,"A monkey has antlers",TRUE,"F",1023,84,"2:2"
"229",82,"F","P",9,"A tortoise runs fast",TRUE,"F",1684,85,"2:2"
"230",1,"T","P",0,"A cardinal is red",TRUE,"T",1277,86,"2:2"
"231",3,"T","P",0,"An owl is nocturnal",TRUE,"T",1522,87,"2:2"
"232",140,"F","S",9,"A pufferfish is a fox",TRUE,"F",1743,88,"2:2"
"233",36,"T","P",2,"A gecko is alive",TRUE,"T",1526,89,"2:2"
"234",26,"T","P",2,"A woodpecker has eyes",TRUE,"T",1246,90,"2:2"
"235",130,"F","S",9,"A komodo dragon is a mammal",TRUE,"F",1758,91,"2:2"
"236",141,"F","S",9,"A piranha is an ostrich",TRUE,"F",1158,92,"2:2"
"237",61,"T","S",2,"A hummingbird is an animal",TRUE,"T",1618,93,"2:2"
"238",136,"F","S",9,"A lion is a car",TRUE,"F",947,94,"2:2"
"239",110,"F","S",9,"A penguin is a shark",TRUE,"F",899,95,"2:2"
"240",84,"F","P",9,"A crocodile is small",TRUE,"F",1295,96,"2:2"
"241",31,"T","P",2,"A trout can reproduce",TRUE,"T",1450,97,"2:2"
"242",94,"F","P",9,"An alligator walks on two legs",TRUE,"F",1761,98,"2:2"
"243",48,"T","S",0,"An anaconda is an anaconda",TRUE,"T",1122,99,"2:2"
"244",49,"T","S",1,"A chickadee is a bird",TRUE,"T",1523,100,"2:2"
"245",34,"T","P",2,"A box turtle can see",TRUE,"T",1291,101,"2:2"
"246",29,"T","P",2,"A rat has bones",TRUE,"T",1218,102,"2:2"
"247",77,"F","P",9,"A moose has wings",TRUE,"F",962,103,"2:2"
"248",111,"F","S",9,"A mockingbird is an eagle",TRUE,"F",1076,104,"2:2"
"249",18,"T","P",1,"A pig gives birth to live young",TRUE,"T",1527,105,"2:2"
"250",78,"F","P",9,"A dog lays eggs",TRUE,"F",975,106,"2:2"
"251",2,"T","P",0,"A pigeon coos",TRUE,"T",1140,107,"2:2"
"252",65,"T","S",2,"A rabbit is an animal",TRUE,"T",791,108,"2:2"
"253",30,"T","P",2,"An antilope has a mouth",TRUE,"T",1363,109,"2:2"
"254",68,"T","S",2,"A pufferfish is an animal",FALSE,"F",1260,110,"2:2"
"255",54,"T","S",1,"A goat is a mammal",TRUE,"T",1170,111,"2:2"
"256",56,"T","S",1,"A sturgeon is a fish",TRUE,"T",1510,112,"2:2"
"257",104,"F","P",9,"A barracuda is friendly",TRUE,"F",1859,113,"2:2"
"258",44,"T","S",0,"A herring is a herring",TRUE,"T",1373,114,"2:2"
"259",21,"T","P",1,"A catfish can swim",TRUE,"T",1167,115,"2:2"
"260",118,"F","S",9,"A monitor lizard is a pigeon",TRUE,"F",1410,116,"2:2"
"261",19,"T","P",1,"A flounder has gills",TRUE,"T",1522,117,"2:2"
"262",97,"F","P",9,"A robin has a shell",FALSE,"T",2754,118,"2:2"
"263",120,"F","S",9,"An anaconda is a mockingbird",TRUE,"F",1331,119,"2:2"
"264",85,"F","P",9,"An eagle eats grass",TRUE,"F",2081,120,"2:2"
"265",88,"F","P",9,"A deer is slimy",TRUE,"F",1699,121,"2:2"
"266",66,"T","S",2,"A mouse is an animal",TRUE,"T",986,122,"2:2"
"267",83,"F","P",9,"A garter snake is tall",TRUE,"F",1657,123,"2:2"
"268",67,"T","S",2,"A sardine is an animal",FALSE,"F",1627,124,"2:2"
"269",109,"F","S",9,"An ostrich is a pig",TRUE,"F",1727,125,"2:2"
"270",63,"T","S",2,"A parrot is an animal",TRUE,"T",995,126,"2:2"
"271",12,"T","P",0,"A crocodile has sharp teeth",TRUE,"T",1259,127,"2:2"
"272",51,"T","S",1,"A crane is a bird",TRUE,"T",1266,128,"2:2"
"273",106,"F","P",9,"A box turtle can hop",TRUE,"F",1174,129,"2:2"
"274",131,"F","S",9,"A chameleon is a bird",TRUE,"F",963,130,"2:2"
"275",75,"F","P",9,"An owl can swim",TRUE,"F",971,131,"2:2"
"276",64,"T","S",2,"A lion is an animal",TRUE,"T",1155,132,"2:2"
"277",119,"F","S",9,"A salamander is a ferret",TRUE,"F",1123,133,"2:2"
"278",13,"T","P",1,"An eagle has wings",TRUE,"T",943,134,"2:2"
"279",9,"T","P",0,"A goldfish is orange",FALSE,"F",925,135,"2:2"
"280",16,"T","P",1,"A deer has hair",TRUE,"T",2157,136,"2:2"
"281",144,"F","S",9,"A frog is a chickadee",TRUE,"F",1163,137,"2:2"
"282",98,"F","P",9,"A woodpecker has fingers",TRUE,"F",1692,138,"2:2"
"283",90,"F","P",9,"A pig has scales",TRUE,"F",807,139,"2:2"
"284",50,"T","S",1,"A sparrow is a bird",TRUE,"T",770,140,"2:2"
"285",133,"F","S",9,"A hummingbird is a plant",TRUE,"F",1218,141,"2:2"
"286",74,"F","P",9,"A pigeon barks",TRUE,"F",1006,142,"2:2"
"287",52,"T","S",1,"A bear is a mammal",TRUE,"T",892,143,"2:2"
"288",105,"F","P",9,"A parrotfish hunts rabbits",TRUE,"F",1546,144,"2:2"
"289",1,"T","P",0,"A cardinal is red",TRUE,"T",2146,1,"3:3"
"290",95,"F","P",9,"A snapping turtle has six legs",TRUE,"F",2637,2,"3:3"
"291",142,"F","S",9,"A newt is a plane",TRUE,"F",2635,3,"3:3"
"292",38,"T","S",0,"A penguin is a penguin",TRUE,"T",1724,4,"3:3"
"293",15,"T","P",1,"A falcon can fly",TRUE,"T",1689,5,"3:3"
"294",125,"F","S",9,"A wolf is a reptile",TRUE,"F",2570,6,"3:3"
"295",8,"T","P",0,"A tiger shark is dangerous",TRUE,"T",2575,7,"3:3"
"296",93,"F","P",9,"A catfish can fly",TRUE,"F",1224,8,"3:3"
"297",135,"F","S",9,"A parrot is a rock",TRUE,"F",2737,9,"3:3"
"298",21,"T","P",1,"A catfish can swim",TRUE,"T",1313,10,"3:3"
"299",78,"F","P",9,"A dog lays eggs",TRUE,"F",1228,11,"3:3"
"300",54,"T","S",1,"A goat is a mammal",TRUE,"T",1473,12,"3:3"
"301",133,"F","S",9,"A hummingbird is a plant",TRUE,"F",1166,13,"3:3"
"302",50,"T","S",1,"A sparrow is a bird",TRUE,"T",2114,14,"3:3"
"303",100,"F","P",9,"A monkey has antlers",TRUE,"F",1563,15,"3:3"
"304",53,"T","S",1,"A wolf is a mammal",TRUE,"T",976,16,"3:3"
"305",134,"F","S",9,"A peacock is a sport",TRUE,"F",1438,17,"3:3"
"306",9,"T","P",0,"A goldfish is orange",TRUE,"T",1896,18,"3:3"
"307",115,"F","S",9,"A cod is a rock",TRUE,"F",1940,19,"3:3"
"308",94,"F","P",9,"An alligator walks on two legs",TRUE,"F",1907,20,"3:3"
"309",77,"F","P",9,"A moose has wings",TRUE,"F",1965,21,"3:3"
"310",122,"F","S",9,"A sparrow is a reptile",TRUE,"F",1901,22,"3:3"
"311",65,"T","S",2,"A rabbit is an animal",TRUE,"T",986,23,"3:3"
"312",89,"F","P",9,"A cat has no legs",TRUE,"F",1237,24,"3:3"
"313",39,"T","S",0,"A mockingbird is a mockingbird",TRUE,"T",1068,25,"3:3"
"314",11,"T","P",0,"A garter snake has no legs",TRUE,"T",2466,26,"3:3"
"315",72,"T","S",2,"A frog is an animal",TRUE,"T",820,27,"3:3"
"316",101,"F","P",9,"A rat has feathers",TRUE,"F",1405,28,"3:3"
"317",25,"T","P",2,"A robin breathes",TRUE,"T",2360,29,"3:3"
"318",58,"T","S",1,"A komodo dragon is a reptile",TRUE,"T",3157,30,"3:3"
"319",10,"T","P",0,"A tortoise has a shell",FALSE,"F",1338,31,"3:3"
"320",42,"T","S",0,"A fox is a fox",TRUE,"T",943,32,"3:3"
"321",112,"F","S",9,"A chipmunk is a plant",TRUE,"F",1222,33,"3:3"
"322",92,"F","P",9,"An angelfish climbs trees",TRUE,"F",2291,34,"3:3"
"323",56,"T","S",1,"A sturgeon is a fish",FALSE,"F",2735,35,"3:3"
"324",111,"F","S",9,"A mockingbird is an eagle",TRUE,"F",1675,36,"3:3"
"325",80,"F","P",9,"A tiger shark has fur",TRUE,"F",1462,37,"3:3"
"326",85,"F","P",9,"An eagle eats grass",TRUE,"F",2038,38,"3:3"
"327",31,"T","P",2,"A trout can reproduce",TRUE,"T",3159,39,"3:3"
"328",64,"T","S",2,"A lion is an animal",TRUE,"T",892,40,"3:3"
"329",120,"F","S",9,"An anaconda is a mockingbird",TRUE,"F",1359,41,"3:3"
"330",59,"T","S",1,"A chameleon is a reptile",TRUE,"T",1565,42,"3:3"
"331",91,"F","P",9,"A flounder can talk",TRUE,"F",1042,43,"3:3"
"332",18,"T","P",1,"A pig gives birth to live young",FALSE,"F",5745,44,"3:3"
"333",110,"F","S",9,"A penguin is a shark",TRUE,"F",1477,45,"3:3"
"334",143,"F","S",9,"A sea turtle is a boat",TRUE,"F",1194,46,"3:3"
"335",12,"T","P",0,"A crocodile has sharp teeth",TRUE,"T",1365,47,"3:3"
"336",96,"F","P",9,"A boa constrictor eats leaves",TRUE,"F",3292,48,"3:3"
"337",57,"T","S",1,"A mackerel is a fish",TRUE,"T",2313,49,"3:3"
"338",13,"T","P",1,"An eagle has wings",TRUE,"T",882,50,"3:3"
"339",107,"F","P",9,"A cobra has legs",TRUE,"F",951,51,"3:3"
"340",37,"T","S",0,"An ostrich is an ostrich",TRUE,"T",1425,52,"3:3"
"341",41,"T","S",0,"A ferret is a ferret",TRUE,"T",810,53,"3:3"
"342",32,"T","P",2,"A barracuda can move",FALSE,"F",3438,54,"3:3"
"343",63,"T","S",2,"A parrot is an animal",TRUE,"T",925,55,"3:3"
"344",83,"F","P",9,"A garter snake is tall",TRUE,"F",2732,56,"3:3"
"345",19,"T","P",1,"A flounder has gills",TRUE,"T",1276,57,"3:3"
"346",109,"F","S",9,"An ostrich is a pig",TRUE,"F",942,58,"3:3"
"347",137,"F","S",9,"A rabbit is a building",TRUE,"F",995,59,"3:3"
"348",71,"T","S",2,"A sea turtle is an animal",TRUE,"T",1167,60,"3:3"
"349",90,"F","P",9,"A pig has scales",TRUE,"F",2087,61,"3:3"
"350",75,"F","P",9,"An owl can swim",TRUE,"F",1061,62,"3:3"
"351",81,"F","P",9,"A goldfish is purple",TRUE,"F",925,63,"3:3"
"352",3,"T","P",0,"An owl is nocturnal",TRUE,"T",1196,64,"3:3"
"353",117,"F","S",9,"A clownfish is a mammal",TRUE,"F",1530,65,"3:3"
"354",20,"T","P",1,"An angelfish has fins",TRUE,"T",826,66,"3:3"
"355",82,"F","P",9,"A tortoise runs fast",TRUE,"F",1040,67,"3:3"
"356",47,"T","S",0,"A salamander is a salamander",TRUE,"T",918,68,"3:3"
"357",123,"F","S",9,"A crane is a fish",TRUE,"F",1046,69,"3:3"
"358",4,"T","P",0,"A squirrel climbs trees",TRUE,"T",1088,70,"3:3"
"359",138,"F","S",9,"A mouse is a leaf",TRUE,"F",900,71,"3:3"
"360",106,"F","P",9,"A box turtle can hop",TRUE,"F",2010,72,"3:3"
"361",108,"F","P",9,"A gecko has fangs",TRUE,"F",2301,73,"3:3"
"362",113,"F","S",9,"A ferret is a mineral",TRUE,"F",2147,74,"3:3"
"363",98,"F","P",9,"A woodpecker has fingers",TRUE,"F",1440,75,"3:3"
"364",43,"T","S",0,"A cod is a cod",TRUE,"T",663,76,"3:3"
"365",99,"F","P",9,"A chicken has sharp teeth",TRUE,"F",1708,77,"3:3"
"366",36,"T","P",2,"A gecko is alive",FALSE,"F",1393,78,"3:3"
"367",17,"T","P",1,"A cat is warm-blooded",FALSE,"F",3126,79,"3:3"
"368",7,"T","P",0,"A salmon swims upstream",TRUE,"T",1705,80,"3:3"
"369",48,"T","S",0,"An anaconda is an anaconda",TRUE,"T",980,81,"3:3"
"370",16,"T","P",1,"A deer has hair",FALSE,"F",1279,82,"3:3"
"371",140,"F","S",9,"A pufferfish is a fox",FALSE,"T",956,83,"3:3"
"372",69,"T","S",2,"A piranha is an animal",TRUE,"T",2023,84,"3:3"
"373",35,"T","P",2,"A cobra has blood",TRUE,"T",1600,85,"3:3"
"374",129,"F","S",9,"A mackerel is a reptile",TRUE,"F",3936,86,"3:3"
"375",28,"T","P",2,"A monkey has a heart",TRUE,"T",1174,87,"3:3"
"376",102,"F","P",9,"An antilope is scaly",TRUE,"F",1320,88,"3:3"
"377",118,"F","S",9,"A monitor lizard is a pigeon",TRUE,"F",1920,89,"3:3"
"378",121,"F","S",9,"A chickadee is a mammal",FALSE,"T",2151,90,"3:3"
"379",87,"F","P",9,"A falcon lives under water",TRUE,"F",1455,91,"3:3"
"380",119,"F","S",9,"A salamander is a ferret",TRUE,"F",2615,92,"3:3"
"381",52,"T","S",1,"A bear is a mammal",TRUE,"T",928,93,"3:3"
"382",22,"T","P",1,"An alligator is cold-blooded",TRUE,"T",4131,94,"3:3"
"383",116,"F","S",9,"A herring is an antelope",TRUE,"F",1716,95,"3:3"
"384",127,"F","S",9,"A minnow is a mammal",TRUE,"F",1844,96,"3:3"
"385",67,"T","S",2,"A sardine is an animal",FALSE,"F",4006,97,"3:3"
"386",2,"T","P",0,"A pigeon coos",TRUE,"T",1770,98,"3:3"
"387",131,"F","S",9,"A chameleon is a bird",TRUE,"F",2005,99,"3:3"
"388",14,"T","P",1,"A blue jay has a beak",TRUE,"T",1568,100,"3:3"
"389",144,"F","S",9,"A frog is a chickadee",TRUE,"F",1322,101,"3:3"
"390",132,"F","S",9,"A rattlesnake is a fish",TRUE,"F",1002,102,"3:3"
"391",60,"T","S",1,"A rattlesnake is a reptile",TRUE,"T",1244,103,"3:3"
"392",84,"F","P",9,"A crocodile is small",TRUE,"F",1080,104,"3:3"
"393",124,"F","S",9,"A bear is a bird",TRUE,"F",1292,105,"3:3"
"394",49,"T","S",1,"A chickadee is a bird",TRUE,"T",1104,106,"3:3"
"395",103,"F","P",9,"A trout is furry",TRUE,"F",1659,107,"3:3"
"396",29,"T","P",2,"A rat has bones",FALSE,"F",1031,108,"3:3"
"397",114,"F","S",9,"A fox is a tree",TRUE,"F",930,109,"3:3"
"398",136,"F","S",9,"A lion is a car",TRUE,"F",882,110,"3:3"
"399",55,"T","S",1,"A minnow is a fish",FALSE,"F",2401,111,"3:3"
"400",66,"T","S",2,"A mouse is an animal",TRUE,"T",814,112,"3:3"
"401",97,"F","P",9,"A robin has a shell",TRUE,"F",1064,113,"3:3"
"402",74,"F","P",9,"A pigeon barks",TRUE,"F",1601,114,"3:3"
"403",88,"F","P",9,"A deer is slimy",TRUE,"F",1868,115,"3:3"
"404",24,"T","P",1,"A boa constrictor lays eggs",FALSE,"F",2211,116,"3:3"
"405",105,"F","P",9,"A parrotfish hunts rabbits",TRUE,"F",1560,117,"3:3"
"406",70,"T","S",2,"A newt is an animal",TRUE,"T",1933,118,"3:3"
"407",46,"T","S",0,"A monitor lizard is a monitor lizard",TRUE,"T",1253,119,"3:3"
"408",73,"F","P",9,"A cardinal is blue",TRUE,"F",1544,120,"3:3"
"409",139,"F","S",9,"A sardine is an anaconda",TRUE,"F",2147,121,"3:3"
"410",130,"F","S",9,"A komodo dragon is a mammal",TRUE,"F",1383,122,"3:3"
"411",27,"T","P",2,"A chicken has a brain",TRUE,"T",2050,123,"3:3"
"412",104,"F","P",9,"A barracuda is friendly",TRUE,"F",1418,124,"3:3"
"413",128,"F","S",9,"A sturgeon is a bird",FALSE,"T",1764,125,"3:3"
"414",61,"T","S",2,"A hummingbird is an animal",TRUE,"T",1051,126,"3:3"
"415",30,"T","P",2,"An antilope has a mouth",TRUE,"T",1776,127,"3:3"
"416",26,"T","P",2,"A woodpecker has eyes",TRUE,"T",1198,128,"3:3"
"417",23,"T","P",1,"A snapping turtle has scaly skin",TRUE,"T",3164,129,"3:3"
"418",62,"T","S",2,"A peacock is an animal",TRUE,"T",974,130,"3:3"
"419",34,"T","P",2,"A box turtle can see",TRUE,"T",1106,131,"3:3"
"420",86,"F","P",9,"A blue jay has gills",TRUE,"F",1121,132,"3:3"
"421",51,"T","S",1,"A crane is a bird",TRUE,"T",915,133,"3:3"
"422",141,"F","S",9,"A piranha is an ostrich",TRUE,"F",2032,134,"3:3"
"423",40,"T","S",0,"A chipmunk is a chipmunk",TRUE,"T",2471,135,"3:3"
"424",68,"T","S",2,"A pufferfish is an animal",FALSE,"F",1348,136,"3:3"
"425",45,"T","S",0,"A clownfish is a clownfish",TRUE,"T",881,137,"3:3"
"426",44,"T","S",0,"A herring is a herring",TRUE,"T",1147,138,"3:3"
"427",33,"T","P",2,"A parrotfish has muscles",TRUE,"T",3180,139,"3:3"
"428",79,"F","P",9,"A salmon has legs",TRUE,"F",1114,140,"3:3"
"429",6,"T","P",0,"A dog barks",TRUE,"T",830,141,"3:3"
"430",76,"F","P",9,"A squirrel has a beak",TRUE,"F",1063,142,"3:3"
"431",126,"F","S",9,"A goat is a fish",TRUE,"F",898,143,"3:3"
"432",5,"T","P",0,"A moose has antlers",FALSE,"F",2803,144,"3:3"
"433",115,"F","S",9,"A cod is a rock",TRUE,"F",3425,1,"6:6"
"434",98,"F","P",9,"A woodpecker has fingers",TRUE,"F",4218,2,"6:6"
"435",136,"F","S",9,"A lion is a car",TRUE,"F",1542,3,"6:6"
"436",59,"T","S",1,"A chameleon is a reptile",TRUE,"T",1679,4,"6:6"
"437",9,"T","P",0,"A goldfish is orange",TRUE,"T",2229,5,"6:6"
"438",70,"T","S",2,"A newt is an animal",FALSE,"F",2729,6,"6:6"
"439",22,"T","P",1,"An alligator is cold-blooded",TRUE,"T",2933,7,"6:6"
"440",103,"F","P",9,"A trout is furry",TRUE,"F",1824,8,"6:6"
"441",47,"T","S",0,"A salamander is a salamander",TRUE,"T",2029,9,"6:6"
"442",80,"F","P",9,"A tiger shark has fur",TRUE,"F",2356,10,"6:6"
"443",91,"F","P",9,"A flounder can talk",TRUE,"F",2648,11,"6:6"
"444",110,"F","S",9,"A penguin is a shark",TRUE,"F",1127,12,"6:6"
"445",117,"F","S",9,"A clownfish is a mammal",FALSE,"T",7297,13,"6:6"
"446",108,"F","P",9,"A gecko has fangs",FALSE,"T",2943,14,"6:6"
"447",112,"F","S",9,"A chipmunk is a plant",TRUE,"F",1286,15,"6:6"
"448",23,"T","P",1,"A snapping turtle has scaly skin",TRUE,"T",4281,16,"6:6"
"449",71,"T","S",2,"A sea turtle is an animal",TRUE,"T",2198,17,"6:6"
"450",26,"T","P",2,"A woodpecker has eyes",TRUE,"T",1913,18,"6:6"
"451",58,"T","S",1,"A komodo dragon is a reptile",TRUE,"T",1702,19,"6:6"
"452",78,"F","P",9,"A dog lays eggs",TRUE,"F",1231,20,"6:6"
"453",100,"F","P",9,"A monkey has antlers",TRUE,"F",1358,21,"6:6"
"454",36,"T","P",2,"A gecko is alive",TRUE,"T",918,22,"6:6"
"455",72,"T","S",2,"A frog is an animal",TRUE,"T",879,23,"6:6"
"456",94,"F","P",9,"An alligator walks on two legs",TRUE,"F",3081,24,"6:6"
"457",31,"T","P",2,"A trout can reproduce",TRUE,"T",1775,25,"6:6"
"458",29,"T","P",2,"A rat has bones",TRUE,"T",1302,26,"6:6"
"459",125,"F","S",9,"A wolf is a reptile",TRUE,"F",1221,27,"6:6"
"460",73,"F","P",9,"A cardinal is blue",FALSE,"T",2194,28,"6:6"
"461",62,"T","S",2,"A peacock is an animal",TRUE,"T",1278,29,"6:6"
"462",130,"F","S",9,"A komodo dragon is a mammal",FALSE,"T",1613,30,"6:6"
"463",109,"F","S",9,"An ostrich is a pig",TRUE,"F",1231,31,"6:6"
"464",143,"F","S",9,"A sea turtle is a boat",TRUE,"F",1262,32,"6:6"
"465",77,"F","P",9,"A moose has wings",TRUE,"F",1733,33,"6:6"
"466",140,"F","S",9,"A pufferfish is a fox",TRUE,"F",1367,34,"6:6"
"467",1,"T","P",0,"A cardinal is red",TRUE,"T",831,35,"6:6"
"468",55,"T","S",1,"A minnow is a fish",FALSE,"F",1925,36,"6:6"
"469",118,"F","S",9,"A monitor lizard is a pigeon",TRUE,"F",1551,37,"6:6"
"470",132,"F","S",9,"A rattlesnake is a fish",TRUE,"F",1702,38,"6:6"
"471",124,"F","S",9,"A bear is a bird",TRUE,"F",798,39,"6:6"
"472",75,"F","P",9,"An owl can swim",TRUE,"F",2246,40,"6:6"
"473",85,"F","P",9,"An eagle eats grass",TRUE,"F",1702,41,"6:6"
"474",139,"F","S",9,"A sardine is an anaconda",TRUE,"F",1527,42,"6:6"
"475",44,"T","S",0,"A herring is a herring",TRUE,"T",983,43,"6:6"
"476",95,"F","P",9,"A snapping turtle has six legs",TRUE,"F",2022,44,"6:6"
"477",133,"F","S",9,"A hummingbird is a plant",TRUE,"F",1431,45,"6:6"
"478",79,"F","P",9,"A salmon has legs",TRUE,"F",1118,46,"6:6"
"479",88,"F","P",9,"A deer is slimy",TRUE,"F",910,47,"6:6"
"480",141,"F","S",9,"A piranha is an ostrich",TRUE,"F",1213,48,"6:6"
"481",21,"T","P",1,"A catfish can swim",TRUE,"T",4641,49,"6:6"
"482",51,"T","S",1,"A crane is a bird",TRUE,"T",2056,50,"6:6"
"483",126,"F","S",9,"A goat is a fish",TRUE,"F",1079,51,"6:6"
"484",93,"F","P",9,"A catfish can fly",TRUE,"F",2110,52,"6:6"
"485",121,"F","S",9,"A chickadee is a mammal",FALSE,"T",1358,53,"6:6"
"486",50,"T","S",1,"A sparrow is a bird",TRUE,"T",774,54,"6:6"
"487",105,"F","P",9,"A parrotfish hunts rabbits",TRUE,"F",2390,55,"6:6"
"488",99,"F","P",9,"A chicken has sharp teeth",TRUE,"F",2222,56,"6:6"
"489",15,"T","P",1,"A falcon can fly",TRUE,"T",1822,57,"6:6"
"490",128,"F","S",9,"A sturgeon is a bird",TRUE,"F",1750,58,"6:6"
"491",52,"T","S",1,"A bear is a mammal",TRUE,"T",782,59,"6:6"
"492",119,"F","S",9,"A salamander is a ferret",TRUE,"F",1870,60,"6:6"
"493",113,"F","S",9,"A ferret is a mineral",TRUE,"F",1462,61,"6:6"
"494",30,"T","P",2,"An antilope has a mouth",TRUE,"T",1870,62,"6:6"
"495",11,"T","P",0,"A garter snake has no legs",TRUE,"T",3006,63,"6:6"
"496",49,"T","S",1,"A chickadee is a bird",TRUE,"T",1118,64,"6:6"
"497",97,"F","P",9,"A robin has a shell",FALSE,"T",3558,65,"6:6"
"498",7,"T","P",0,"A salmon swims upstream",TRUE,"T",1990,66,"6:6"
"499",83,"F","P",9,"A garter snake is tall",FALSE,"T",2111,67,"6:6"
"500",17,"T","P",1,"A cat is warm-blooded",TRUE,"T",2126,68,"6:6"
"501",53,"T","S",1,"A wolf is a mammal",TRUE,"T",862,69,"6:6"
"502",127,"F","S",9,"A minnow is a mammal",FALSE,"T",1830,70,"6:6"
"503",19,"T","P",1,"A flounder has gills",FALSE,"F",3110,71,"6:6"
"504",131,"F","S",9,"A chameleon is a bird",FALSE,"T",1054,72,"6:6"
"505",67,"T","S",2,"A sardine is an animal",FALSE,"F",2343,73,"6:6"
"506",87,"F","P",9,"A falcon lives under water",TRUE,"F",3950,74,"6:6"
"507",61,"T","S",2,"A hummingbird is an animal",TRUE,"T",862,75,"6:6"
"508",43,"T","S",0,"A cod is a cod",TRUE,"T",942,76,"6:6"
"509",122,"F","S",9,"A sparrow is a reptile",TRUE,"F",1391,77,"6:6"
"510",116,"F","S",9,"A herring is an antelope",TRUE,"F",3311,78,"6:6"
"511",111,"F","S",9,"A mockingbird is an eagle",TRUE,"F",1902,79,"6:6"
"512",69,"T","S",2,"A piranha is an animal",FALSE,"F",1014,80,"6:6"
"513",68,"T","S",2,"A pufferfish is an animal",TRUE,"T",1254,81,"6:6"
"514",10,"T","P",0,"A tortoise has a shell",TRUE,"T",1566,82,"6:6"
"515",63,"T","S",2,"A parrot is an animal",TRUE,"T",1278,83,"6:6"
"516",27,"T","P",2,"A chicken has a brain",TRUE,"T",998,84,"6:6"
"517",89,"F","P",9,"A cat has no legs",TRUE,"F",1822,85,"6:6"
"518",38,"T","S",0,"A penguin is a penguin",TRUE,"T",766,86,"6:6"
"519",12,"T","P",0,"A crocodile has sharp teeth",TRUE,"T",3142,87,"6:6"
"520",86,"F","P",9,"A blue jay has gills",TRUE,"F",1982,88,"6:6"
"521",40,"T","S",0,"A chipmunk is a chipmunk",TRUE,"T",735,89,"6:6"
"522",142,"F","S",9,"A newt is a plane",TRUE,"F",1454,90,"6:6"
"523",81,"F","P",9,"A goldfish is purple",TRUE,"F",927,91,"6:6"
"524",129,"F","S",9,"A mackerel is a reptile",TRUE,"F",1566,92,"6:6"
"525",102,"F","P",9,"An antilope is scaly",TRUE,"F",2183,93,"6:6"
"526",123,"F","S",9,"A crane is a fish",FALSE,"T",1110,94,"6:6"
"527",6,"T","P",0,"A dog barks",TRUE,"T",782,95,"6:6"
"528",54,"T","S",1,"A goat is a mammal",TRUE,"T",903,96,"6:6"
"529",41,"T","S",0,"A ferret is a ferret",TRUE,"T",1462,97,"6:6"
"530",76,"F","P",9,"A squirrel has a beak",TRUE,"F",1278,98,"6:6"
"531",84,"F","P",9,"A crocodile is small",TRUE,"F",1518,99,"6:6"
"532",56,"T","S",1,"A sturgeon is a fish",FALSE,"F",1086,100,"6:6"
"533",120,"F","S",9,"An anaconda is a mockingbird",TRUE,"F",1079,101,"6:6"
"534",74,"F","P",9,"A pigeon barks",TRUE,"F",910,102,"6:6"
"535",107,"F","P",9,"A cobra has legs",TRUE,"F",1518,103,"6:6"
"536",48,"T","S",0,"An anaconda is an anaconda",TRUE,"T",966,104,"6:6"
"537",8,"T","P",0,"A tiger shark is dangerous",TRUE,"T",3782,105,"6:6"
"538",25,"T","P",2,"A robin breathes",TRUE,"T",1262,106,"6:6"
"539",28,"T","P",2,"A monkey has a heart",TRUE,"T",1166,107,"6:6"
"540",64,"T","S",2,"A lion is an animal",TRUE,"T",878,108,"6:6"
"541",24,"T","P",1,"A boa constrictor lays eggs",TRUE,"T",1934,109,"6:6"
"542",104,"F","P",9,"A barracuda is friendly",TRUE,"F",2494,110,"6:6"
"543",13,"T","P",1,"An eagle has wings",TRUE,"T",1086,111,"6:6"
"544",34,"T","P",2,"A box turtle can see",TRUE,"T",1654,112,"6:6"
"545",37,"T","S",0,"An ostrich is an ostrich",TRUE,"T",702,113,"6:6"
"546",57,"T","S",1,"A mackerel is a fish",TRUE,"T",1022,114,"6:6"
"547",114,"F","S",9,"A fox is a tree",TRUE,"F",894,115,"6:6"
"548",2,"T","P",0,"A pigeon coos",TRUE,"T",2438,116,"6:6"
"549",35,"T","P",2,"A cobra has blood",TRUE,"T",1694,117,"6:6"
"550",82,"F","P",9,"A tortoise runs fast",TRUE,"F",1350,118,"6:6"
"551",46,"T","S",0,"A monitor lizard is a monitor lizard",TRUE,"T",1789,119,"6:6"
"552",20,"T","P",1,"An angelfish has fins",TRUE,"T",1710,120,"6:6"
"553",16,"T","P",1,"A deer has hair",FALSE,"F",1238,121,"6:6"
"554",101,"F","P",9,"A rat has feathers",TRUE,"F",2934,122,"6:6"
"555",5,"T","P",0,"A moose has antlers",FALSE,"F",934,123,"6:6"
"556",106,"F","P",9,"A box turtle can hop",TRUE,"F",2782,124,"6:6"
"557",65,"T","S",2,"A rabbit is an animal",TRUE,"T",990,125,"6:6"
"558",66,"T","S",2,"A mouse is an animal",TRUE,"T",734,126,"6:6"
"559",3,"T","P",0,"An owl is nocturnal",TRUE,"T",1334,127,"6:6"
"560",14,"T","P",1,"A blue jay has a beak",TRUE,"T",1438,128,"6:6"
"561",92,"F","P",9,"An angelfish climbs trees",TRUE,"F",1149,129,"6:6"
"562",135,"F","S",9,"A parrot is a rock",TRUE,"F",1071,130,"6:6"
"563",45,"T","S",0,"A clownfish is a clownfish",TRUE,"T",1479,131,"6:6"
"564",39,"T","S",0,"A mockingbird is a mockingbird",TRUE,"T",982,132,"6:6"
"565",32,"T","P",2,"A barracuda can move",TRUE,"T",1495,133,"6:6"
"566",90,"F","P",9,"A pig has scales",TRUE,"F",926,134,"6:6"
"567",33,"T","P",2,"A parrotfish has muscles",FALSE,"F",1782,135,"6:6"
"568",137,"F","S",9,"A rabbit is a building",TRUE,"F",974,136,"6:6"
"569",144,"F","S",9,"A frog is a chickadee",TRUE,"F",1238,137,"6:6"
"570",18,"T","P",1,"A pig gives birth to live young",TRUE,"T",2222,138,"6:6"
"571",138,"F","S",9,"A mouse is a leaf",TRUE,"F",1734,139,"6:6"
"572",4,"T","P",0,"A squirrel climbs trees",TRUE,"T",3398,140,"6:6"
"573",42,"T","S",0,"A fox is a fox",TRUE,"T",798,141,"6:6"
"574",96,"F","P",9,"A boa constrictor eats leaves",TRUE,"F",4118,142,"6:6"
"575",60,"T","S",1,"A rattlesnake is a reptile",TRUE,"T",2318,143,"6:6"
"576",134,"F","S",9,"A peacock is a sport",TRUE,"F",1406,144,"6:6"
"577",85,"F","P",9,"An eagle eats grass",TRUE,"F",3765,1,"5:5"
"578",75,"F","P",9,"An owl can swim",TRUE,"F",2814,2,"5:5"
"579",118,"F","S",9,"A monitor lizard is a pigeon",TRUE,"F",3157,3,"5:5"
"580",101,"F","P",9,"A rat has feathers",TRUE,"F",2438,4,"5:5"
"581",71,"T","S",2,"A sea turtle is an animal",TRUE,"T",3476,5,"5:5"
"582",31,"T","P",2,"A trout can reproduce",TRUE,"T",3835,6,"5:5"
"583",39,"T","S",0,"A mockingbird is a mockingbird",TRUE,"T",2927,7,"5:5"
"584",73,"F","P",9,"A cardinal is blue",FALSE,"T",3067,8,"5:5"
"585",44,"T","S",0,"A herring is a herring",TRUE,"T",3027,9,"5:5"
"586",63,"T","S",2,"A parrot is an animal",TRUE,"T",1801,10,"5:5"
"587",57,"T","S",1,"A mackerel is a fish",TRUE,"T",3027,11,"5:5"
"588",112,"F","S",9,"A chipmunk is a plant",TRUE,"F",2309,12,"5:5"
"589",107,"F","P",9,"A cobra has legs",TRUE,"F",2599,13,"5:5"
"590",93,"F","P",9,"A catfish can fly",TRUE,"F",4684,14,"5:5"
"591",76,"F","P",9,"A squirrel has a beak",TRUE,"F",2798,15,"5:5"
"592",52,"T","S",1,"A bear is a mammal",TRUE,"T",2920,16,"5:5"
"593",144,"F","S",9,"A frog is a chickadee",TRUE,"F",2847,17,"5:5"
"594",127,"F","S",9,"A minnow is a mammal",TRUE,"F",4894,18,"5:5"
"595",88,"F","P",9,"A deer is slimy",TRUE,"F",2329,19,"5:5"
"596",28,"T","P",2,"A monkey has a heart",TRUE,"T",2040,20,"5:5"
"597",79,"F","P",9,"A salmon has legs",TRUE,"F",1521,21,"5:5"
"598",11,"T","P",0,"A garter snake has no legs",TRUE,"T",3606,22,"5:5"
"599",87,"F","P",9,"A falcon lives under water",TRUE,"F",2181,23,"5:5"
"600",111,"F","S",9,"A mockingbird is an eagle",TRUE,"F",2840,24,"5:5"
"601",140,"F","S",9,"A pufferfish is a fox",TRUE,"F",3228,25,"5:5"
"602",99,"F","P",9,"A chicken has sharp teeth",FALSE,"T",3009,26,"5:5"
"603",110,"F","S",9,"A penguin is a shark",TRUE,"F",3337,27,"5:5"
"604",61,"T","S",2,"A hummingbird is an animal",TRUE,"T",2310,28,"5:5"
"605",13,"T","P",1,"An eagle has wings",TRUE,"T",1841,29,"5:5"
"606",90,"F","P",9,"A pig has scales",TRUE,"F",2300,30,"5:5"
"607",143,"F","S",9,"A sea turtle is a boat",TRUE,"F",2211,31,"5:5"
"608",26,"T","P",2,"A woodpecker has eyes",TRUE,"T",2092,32,"5:5"
"609",9,"T","P",0,"A goldfish is orange",TRUE,"T",2400,33,"5:5"
"610",109,"F","S",9,"An ostrich is a pig",TRUE,"F",3038,34,"5:5"
"611",35,"T","P",2,"A cobra has blood",TRUE,"T",1921,35,"5:5"
"612",119,"F","S",9,"A salamander is a ferret",TRUE,"F",3209,36,"5:5"
"613",37,"T","S",0,"An ostrich is an ostrich",TRUE,"T",2011,37,"5:5"
"614",84,"F","P",9,"A crocodile is small",TRUE,"F",2910,38,"5:5"
"615",122,"F","S",9,"A sparrow is a reptile",TRUE,"F",3388,39,"5:5"
"616",51,"T","S",1,"A crane is a bird",TRUE,"T",5065,40,"5:5"
"617",125,"F","S",9,"A wolf is a reptile",TRUE,"F",1732,41,"5:5"
"618",2,"T","P",0,"A pigeon coos",TRUE,"T",4459,42,"5:5"
"619",134,"F","S",9,"A peacock is a sport",TRUE,"F",3258,43,"5:5"
"620",6,"T","P",0,"A dog barks",TRUE,"T",3388,44,"5:5"
"621",50,"T","S",1,"A sparrow is a bird",TRUE,"T",1752,45,"5:5"
"622",97,"F","P",9,"A robin has a shell",TRUE,"F",2252,46,"5:5"
"623",15,"T","P",1,"A falcon can fly",TRUE,"T",2151,47,"5:5"
"624",82,"F","P",9,"A tortoise runs fast",TRUE,"F",2440,48,"5:5"
"625",30,"T","P",2,"An antilope has a mouth",TRUE,"T",5681,49,"5:5"
"626",4,"T","P",0,"A squirrel climbs trees",TRUE,"T",1928,50,"5:5"
"627",14,"T","P",1,"A blue jay has a beak",TRUE,"T",1713,51,"5:5"
"628",81,"F","P",9,"A goldfish is purple",TRUE,"F",1614,52,"5:5"
"629",131,"F","S",9,"A chameleon is a bird",TRUE,"F",3819,53,"5:5"
"630",22,"T","P",1,"An alligator is cold-blooded",TRUE,"T",3601,54,"5:5"
"631",94,"F","P",9,"An alligator walks on two legs",TRUE,"F",3472,55,"5:5"
"632",62,"T","S",2,"A peacock is an animal",TRUE,"T",3280,56,"5:5"
"633",59,"T","S",1,"A chameleon is a reptile",TRUE,"T",1904,57,"5:5"
"634",19,"T","P",1,"A flounder has gills",FALSE,"F",4379,58,"5:5"
"635",117,"F","S",9,"A clownfish is a mammal",TRUE,"F",4301,59,"5:5"
"636",141,"F","S",9,"A piranha is an ostrich",TRUE,"F",2381,60,"5:5"
"637",24,"T","P",1,"A boa constrictor lays eggs",TRUE,"T",3741,61,"5:5"
"638",12,"T","P",0,"A crocodile has sharp teeth",TRUE,"T",2971,62,"5:5"
"639",38,"T","S",0,"A penguin is a penguin",TRUE,"T",1733,63,"5:5"
"640",34,"T","P",2,"A box turtle can see",TRUE,"T",3391,64,"5:5"
"641",29,"T","P",2,"A rat has bones",TRUE,"T",1935,65,"5:5"
"642",43,"T","S",0,"A cod is a cod",TRUE,"T",1783,66,"5:5"
"643",48,"T","S",0,"An anaconda is an anaconda",TRUE,"T",2604,67,"5:5"
"644",67,"T","S",2,"A sardine is an animal",TRUE,"T",3620,68,"5:5"
"645",142,"F","S",9,"A newt is a plane",TRUE,"F",2833,69,"5:5"
"646",7,"T","P",0,"A salmon swims upstream",TRUE,"T",3362,70,"5:5"
"647",27,"T","P",2,"A chicken has a brain",TRUE,"T",1924,71,"5:5"
"648",114,"F","S",9,"A fox is a tree",TRUE,"F",2604,72,"5:5"
"649",3,"T","P",0,"An owl is nocturnal",TRUE,"T",1834,73,"5:5"
"650",16,"T","P",1,"A deer has hair",TRUE,"T",1884,74,"5:5"
"651",60,"T","S",1,"A rattlesnake is a reptile",TRUE,"T",1944,75,"5:5"
"652",65,"T","S",2,"A rabbit is an animal",TRUE,"T",2144,76,"5:5"
"653",40,"T","S",0,"A chipmunk is a chipmunk",TRUE,"T",3214,77,"5:5"
"654",46,"T","S",0,"A monitor lizard is a monitor lizard",TRUE,"T",2224,78,"5:5"
"655",72,"T","S",2,"A frog is an animal",TRUE,"T",1894,79,"5:5"
"656",129,"F","S",9,"A mackerel is a reptile",FALSE,"T",2184,80,"5:5"
"657",64,"T","S",2,"A lion is an animal",TRUE,"T",1086,81,"5:5"
"658",89,"F","P",9,"A cat has no legs",TRUE,"F",1806,82,"5:5"
"659",100,"F","P",9,"A monkey has antlers",TRUE,"F",3153,83,"5:5"
"660",106,"F","P",9,"A box turtle can hop",TRUE,"F",1965,84,"5:5"
"661",104,"F","P",9,"A barracuda is friendly",TRUE,"F",2495,85,"5:5"
"662",102,"F","P",9,"An antilope is scaly",TRUE,"F",2944,86,"5:5"
"663",115,"F","S",9,"A cod is a rock",TRUE,"F",1766,87,"5:5"
"664",121,"F","S",9,"A chickadee is a mammal",FALSE,"T",2962,88,"5:5"
"665",49,"T","S",1,"A chickadee is a bird",TRUE,"T",2604,89,"5:5"
"666",74,"F","P",9,"A pigeon barks",TRUE,"F",1865,90,"5:5"
"667",56,"T","S",1,"A sturgeon is a fish",FALSE,"F",3833,91,"5:5"
"668",91,"F","P",9,"A flounder can talk",TRUE,"F",2395,92,"5:5"
"669",113,"F","S",9,"A ferret is a mineral",TRUE,"F",2107,93,"5:5"
"670",68,"T","S",2,"A pufferfish is an animal",TRUE,"T",3103,94,"5:5"
"671",136,"F","S",9,"A lion is a car",TRUE,"F",1606,95,"5:5"
"672",47,"T","S",0,"A salamander is a salamander",TRUE,"T",1416,96,"5:5"
"673",33,"T","P",2,"A parrotfish has muscles",FALSE,"F",3645,97,"5:5"
"674",120,"F","S",9,"An anaconda is a mockingbird",TRUE,"F",2096,98,"5:5"
"675",78,"F","P",9,"A dog lays eggs",TRUE,"F",1537,99,"5:5"
"676",36,"T","P",2,"A gecko is alive",TRUE,"T",2808,100,"5:5"
"677",133,"F","S",9,"A hummingbird is a plant",TRUE,"F",1805,101,"5:5"
"678",5,"T","P",0,"A moose has antlers",FALSE,"F",2515,102,"5:5"
"679",20,"T","P",1,"An angelfish has fins",TRUE,"T",3775,103,"5:5"
"680",83,"F","P",9,"A garter snake is tall",FALSE,"T",3055,104,"5:5"
"681",126,"F","S",9,"A goat is a fish",TRUE,"F",2647,105,"5:5"
"682",108,"F","P",9,"A gecko has fangs",FALSE,"T",5083,106,"5:5"
"683",69,"T","S",2,"A piranha is an animal",TRUE,"T",2425,107,"5:5"
"684",45,"T","S",0,"A clownfish is a clownfish",TRUE,"T",3259,108,"5:5"
"685",123,"F","S",9,"A crane is a fish",TRUE,"F",2882,109,"5:5"
"686",70,"T","S",2,"A newt is an animal",TRUE,"T",2566,110,"5:5"
"687",95,"F","P",9,"A snapping turtle has six legs",TRUE,"F",2688,111,"5:5"
"688",18,"T","P",1,"A pig gives birth to live young",TRUE,"T",4634,112,"5:5"
"689",132,"F","S",9,"A rattlesnake is a fish",TRUE,"F",1767,113,"5:5"
"690",130,"F","S",9,"A komodo dragon is a mammal",TRUE,"F",4454,114,"5:5"
"691",96,"F","P",9,"A boa constrictor eats leaves",TRUE,"F",4735,115,"5:5"
"692",116,"F","S",9,"A herring is an antelope",TRUE,"F",4344,116,"5:5"
"693",98,"F","P",9,"A woodpecker has fingers",TRUE,"F",4755,117,"5:5"
"694",86,"F","P",9,"A blue jay has gills",TRUE,"F",2427,118,"5:5"
"695",32,"T","P",2,"A barracuda can move",TRUE,"T",2354,119,"5:5"
"696",42,"T","S",0,"A fox is a fox",TRUE,"T",1077,120,"5:5"
"697",105,"F","P",9,"A parrotfish hunts rabbits",TRUE,"F",3637,121,"5:5"
"698",21,"T","P",1,"A catfish can swim",TRUE,"T",2147,122,"5:5"
"699",80,"F","P",9,"A tiger shark has fur",TRUE,"F",2946,123,"5:5"
"700",138,"F","S",9,"A mouse is a leaf",FALSE,"T",2856,124,"5:5"
"701",8,"T","P",0,"A tiger shark is dangerous",TRUE,"T",2859,125,"5:5"
"702",124,"F","S",9,"A bear is a bird",TRUE,"F",1665,126,"5:5"
"703",103,"F","P",9,"A trout is furry",TRUE,"F",2496,127,"5:5"
"704",55,"T","S",1,"A minnow is a fish",FALSE,"F",2956,128,"5:5"
"705",53,"T","S",1,"A wolf is a mammal",TRUE,"T",1548,129,"5:5"
"706",23,"T","P",1,"A snapping turtle has scaly skin",TRUE,"T",3835,130,"5:5"
"707",10,"T","P",0,"A tortoise has a shell",TRUE,"T",2236,131,"5:5"
"708",128,"F","S",9,"A sturgeon is a bird",TRUE,"F",3156,132,"5:5"
"709",66,"T","S",2,"A mouse is an animal",TRUE,"T",2167,133,"5:5"
"710",92,"F","P",9,"An angelfish climbs trees",TRUE,"F",1867,134,"5:5"
"711",1,"T","P",0,"A cardinal is red",TRUE,"T",2276,135,"5:5"
"712",58,"T","S",1,"A komodo dragon is a reptile",TRUE,"T",1967,136,"5:5"
"713",77,"F","P",9,"A moose has wings",TRUE,"F",2418,137,"5:5"
"714",25,"T","P",2,"A robin breathes",TRUE,"T",2557,138,"5:5"
"715",17,"T","P",1,"A cat is warm-blooded",TRUE,"T",3447,139,"5:5"
"716",54,"T","S",1,"A goat is a mammal",TRUE,"T",1148,140,"5:5"
"717",139,"F","S",9,"A sardine is an anaconda",TRUE,"F",1748,141,"5:5"
"718",137,"F","S",9,"A rabbit is a building",TRUE,"F",1617,142,"5:5"
"719",41,"T","S",0,"A ferret is a ferret",TRUE,"T",1367,143,"5:5"
"720",135,"F","S",9,"A parrot is a rock",TRUE,"F",1547,144,"5:5"
"721",102,"F","P",9,"An antilope is scaly",TRUE,"F",3928,1,"7:7"
"722",116,"F","S",9,"A herring is an antelope",TRUE,"F",1417,2,"7:7"
"723",37,"T","S",0,"An ostrich is an ostrich",TRUE,"T",1275,3,"7:7"
"724",6,"T","P",0,"A dog barks",TRUE,"T",746,4,"7:7"
"725",55,"T","S",1,"A minnow is a fish",TRUE,"T",1042,5,"7:7"
"726",69,"T","S",2,"A piranha is an animal",TRUE,"T",1135,6,"7:7"
"727",114,"F","S",9,"A fox is a tree",TRUE,"F",866,7,"7:7"
"728",33,"T","P",2,"A parrotfish has muscles",TRUE,"T",1902,8,"7:7"
"729",82,"F","P",9,"A tortoise runs fast",TRUE,"F",1058,9,"7:7"
"730",49,"T","S",1,"A chickadee is a bird",TRUE,"T",786,10,"7:7"
"731",104,"F","P",9,"A barracuda is friendly",TRUE,"F",2166,11,"7:7"
"732",12,"T","P",0,"A crocodile has sharp teeth",TRUE,"T",906,12,"7:7"
"733",113,"F","S",9,"A ferret is a mineral",TRUE,"F",1314,13,"7:7"
"734",10,"T","P",0,"A tortoise has a shell",TRUE,"T",1266,14,"7:7"
"735",92,"F","P",9,"An angelfish climbs trees",TRUE,"F",1163,15,"7:7"
"736",74,"F","P",9,"A pigeon barks",TRUE,"F",951,16,"7:7"
"737",3,"T","P",0,"An owl is nocturnal",TRUE,"T",1258,17,"7:7"
"738",103,"F","P",9,"A trout is furry",TRUE,"F",1050,18,"7:7"
"739",142,"F","S",9,"A newt is a plane",TRUE,"F",1274,19,"7:7"
"740",133,"F","S",9,"A hummingbird is a plant",TRUE,"F",1942,20,"7:7"
"741",66,"T","S",2,"A mouse is an animal",TRUE,"T",1100,21,"7:7"
"742",45,"T","S",0,"A clownfish is a clownfish",TRUE,"T",846,22,"7:7"
"743",46,"T","S",0,"A monitor lizard is a monitor lizard",TRUE,"T",1010,23,"7:7"
"744",27,"T","P",2,"A chicken has a brain",TRUE,"T",936,24,"7:7"
"745",50,"T","S",1,"A sparrow is a bird",TRUE,"T",1010,25,"7:7"
"746",52,"T","S",1,"A bear is a mammal",TRUE,"T",840,26,"7:7"
"747",123,"F","S",9,"A crane is a fish",TRUE,"F",1303,27,"7:7"
"748",15,"T","P",1,"A falcon can fly",TRUE,"T",1018,28,"7:7"
"749",51,"T","S",1,"A crane is a bird",TRUE,"T",954,29,"7:7"
"750",8,"T","P",0,"A tiger shark is dangerous",TRUE,"T",1554,30,"7:7"
"751",106,"F","P",9,"A box turtle can hop",FALSE,"T",2739,31,"7:7"
"752",47,"T","S",0,"A salamander is a salamander",TRUE,"T",1920,32,"7:7"
"753",128,"F","S",9,"A sturgeon is a bird",TRUE,"F",1044,33,"7:7"
"754",44,"T","S",0,"A herring is a herring",TRUE,"T",810,34,"7:7"
"755",109,"F","S",9,"An ostrich is a pig",TRUE,"F",746,35,"7:7"
"756",127,"F","S",9,"A minnow is a mammal",FALSE,"T",1402,36,"7:7"
"757",67,"T","S",2,"A sardine is an animal",TRUE,"T",1478,37,"7:7"
"758",36,"T","P",2,"A gecko is alive",TRUE,"T",907,38,"7:7"
"759",129,"F","S",9,"A mackerel is a reptile",FALSE,"T",2695,39,"7:7"
"760",98,"F","P",9,"A woodpecker has fingers",TRUE,"F",1945,40,"7:7"
"761",39,"T","S",0,"A mockingbird is a mockingbird",TRUE,"T",802,41,"7:7"
"762",11,"T","P",0,"A garter snake has no legs",TRUE,"T",1808,42,"7:7"
"763",100,"F","P",9,"A monkey has antlers",TRUE,"F",1378,43,"7:7"
"764",21,"T","P",1,"A catfish can swim",TRUE,"T",1774,44,"7:7"
"765",130,"F","S",9,"A komodo dragon is a mammal",TRUE,"F",1476,45,"7:7"
"766",30,"T","P",2,"An antilope has a mouth",TRUE,"T",1154,46,"7:7"
"767",125,"F","S",9,"A wolf is a reptile",TRUE,"F",1202,47,"7:7"
"768",43,"T","S",0,"A cod is a cod",TRUE,"T",1426,48,"7:7"
"769",81,"F","P",9,"A goldfish is purple",TRUE,"F",1554,49,"7:7"
"770",136,"F","S",9,"A lion is a car",TRUE,"F",1705,50,"7:7"
"771",26,"T","P",2,"A woodpecker has eyes",TRUE,"T",1011,51,"7:7"
"772",134,"F","S",9,"A peacock is a sport",TRUE,"F",1976,52,"7:7"
"773",59,"T","S",1,"A chameleon is a reptile",TRUE,"T",1274,53,"7:7"
"774",144,"F","S",9,"A frog is a chickadee",TRUE,"F",1010,54,"7:7"
"775",89,"F","P",9,"A cat has no legs",TRUE,"F",745,55,"7:7"
"776",83,"F","P",9,"A garter snake is tall",TRUE,"F",1996,56,"7:7"
"777",18,"T","P",1,"A pig gives birth to live young",TRUE,"T",1979,57,"7:7"
"778",91,"F","P",9,"A flounder can talk",TRUE,"F",986,58,"7:7"
"779",70,"T","S",2,"A newt is an animal",TRUE,"T",1361,59,"7:7"
"780",94,"F","P",9,"An alligator walks on two legs",TRUE,"F",2229,60,"7:7"
"781",135,"F","S",9,"A parrot is a rock",TRUE,"F",1043,61,"7:7"
"782",38,"T","S",0,"A penguin is a penguin",TRUE,"T",810,62,"7:7"
"783",2,"T","P",0,"A pigeon coos",TRUE,"T",3296,63,"7:7"
"784",7,"T","P",0,"A salmon swims upstream",TRUE,"T",1074,64,"7:7"
"785",1,"T","P",0,"A cardinal is red",TRUE,"T",946,65,"7:7"
"786",16,"T","P",1,"A deer has hair",TRUE,"T",962,66,"7:7"
"787",61,"T","S",2,"A hummingbird is an animal",TRUE,"T",1531,67,"7:7"
"788",111,"F","S",9,"A mockingbird is an eagle",TRUE,"F",1403,68,"7:7"
"789",4,"T","P",0,"A squirrel climbs trees",TRUE,"T",1138,69,"7:7"
"790",32,"T","P",2,"A barracuda can move",TRUE,"T",1339,70,"7:7"
"791",73,"F","P",9,"A cardinal is blue",FALSE,"T",1650,71,"7:7"
"792",62,"T","S",2,"A peacock is an animal",TRUE,"T",1370,72,"7:7"
"793",126,"F","S",9,"A goat is a fish",TRUE,"F",963,73,"7:7"
"794",105,"F","P",9,"A parrotfish hunts rabbits",TRUE,"F",2134,74,"7:7"
"795",140,"F","S",9,"A pufferfish is a fox",TRUE,"F",1347,75,"7:7"
"796",17,"T","P",1,"A cat is warm-blooded",TRUE,"T",1618,76,"7:7"
"797",139,"F","S",9,"A sardine is an anaconda",TRUE,"F",1378,77,"7:7"
"798",75,"F","P",9,"An owl can swim",TRUE,"F",1075,78,"7:7"
"799",20,"T","P",1,"An angelfish has fins",TRUE,"T",2325,79,"7:7"
"800",28,"T","P",2,"A monkey has a heart",TRUE,"T",1058,80,"7:7"
"801",112,"F","S",9,"A chipmunk is a plant",TRUE,"F",1274,81,"7:7"
"802",107,"F","P",9,"A cobra has legs",TRUE,"F",1187,82,"7:7"
"803",23,"T","P",1,"A snapping turtle has scaly skin",TRUE,"T",1377,83,"7:7"
"804",122,"F","S",9,"A sparrow is a reptile",TRUE,"F",1635,84,"7:7"
"805",64,"T","S",2,"A lion is an animal",TRUE,"T",1003,85,"7:7"
"806",97,"F","P",9,"A robin has a shell",TRUE,"F",1203,86,"7:7"
"807",110,"F","S",9,"A penguin is a shark",TRUE,"F",931,87,"7:7"
"808",40,"T","S",0,"A chipmunk is a chipmunk",TRUE,"T",1138,88,"7:7"
"809",35,"T","P",2,"A cobra has blood",TRUE,"T",1914,89,"7:7"
"810",138,"F","S",9,"A mouse is a leaf",TRUE,"F",2378,90,"7:7"
"811",19,"T","P",1,"A flounder has gills",TRUE,"T",1531,91,"7:7"
"812",34,"T","P",2,"A box turtle can see",TRUE,"T",1219,92,"7:7"
"813",78,"F","P",9,"A dog lays eggs",TRUE,"F",1170,93,"7:7"
"814",99,"F","P",9,"A chicken has sharp teeth",TRUE,"F",1418,94,"7:7"
"815",95,"F","P",9,"A snapping turtle has six legs",TRUE,"F",2139,95,"7:7"
"816",24,"T","P",1,"A boa constrictor lays eggs",TRUE,"T",4051,96,"7:7"
"817",68,"T","S",2,"A pufferfish is an animal",TRUE,"T",1858,97,"7:7"
"818",77,"F","P",9,"A moose has wings",TRUE,"F",1034,98,"7:7"
"819",96,"F","P",9,"A boa constrictor eats leaves",FALSE,"T",3158,99,"7:7"
"820",5,"T","P",0,"A moose has antlers",TRUE,"T",1179,100,"7:7"
"821",14,"T","P",1,"A blue jay has a beak",TRUE,"T",1400,101,"7:7"
"822",58,"T","S",1,"A komodo dragon is a reptile",TRUE,"T",1594,102,"7:7"
"823",79,"F","P",9,"A salmon has legs",TRUE,"F",954,103,"7:7"
"824",101,"F","P",9,"A rat has feathers",TRUE,"F",1282,104,"7:7"
"825",29,"T","P",2,"A rat has bones",TRUE,"T",1083,105,"7:7"
"826",121,"F","S",9,"A chickadee is a mammal",FALSE,"T",1162,106,"7:7"
"827",31,"T","P",2,"A trout can reproduce",TRUE,"T",1114,107,"7:7"
"828",117,"F","S",9,"A clownfish is a mammal",FALSE,"T",1066,108,"7:7"
"829",137,"F","S",9,"A rabbit is a building",TRUE,"F",2422,109,"7:7"
"830",42,"T","S",0,"A fox is a fox",TRUE,"T",1226,110,"7:7"
"831",93,"F","P",9,"A catfish can fly",FALSE,"T",1586,111,"7:7"
"832",143,"F","S",9,"A sea turtle is a boat",TRUE,"F",6287,112,"7:7"
"833",71,"T","S",2,"A sea turtle is an animal",TRUE,"T",1963,113,"7:7"
"834",119,"F","S",9,"A salamander is a ferret",TRUE,"F",1379,114,"7:7"
"835",76,"F","P",9,"A squirrel has a beak",TRUE,"F",3353,115,"7:7"
"836",72,"T","S",2,"A frog is an animal",TRUE,"T",1601,116,"7:7"
"837",84,"F","P",9,"A crocodile is small",TRUE,"F",2758,117,"7:7"
"838",63,"T","S",2,"A parrot is an animal",TRUE,"T",987,118,"7:7"
"839",54,"T","S",1,"A goat is a mammal",TRUE,"T",1058,119,"7:7"
"840",132,"F","S",9,"A rattlesnake is a fish",TRUE,"F",1770,120,"7:7"
"841",88,"F","P",9,"A deer is slimy",TRUE,"F",1250,121,"7:7"
"842",53,"T","S",1,"A wolf is a mammal",TRUE,"T",1314,122,"7:7"
"843",60,"T","S",1,"A rattlesnake is a reptile",FALSE,"F",1697,123,"7:7"
"844",87,"F","P",9,"A falcon lives under water",TRUE,"F",1619,124,"7:7"
"845",90,"F","P",9,"A pig has scales",TRUE,"F",1485,125,"7:7"
"846",65,"T","S",2,"A rabbit is an animal",TRUE,"T",7504,126,"7:7"
"847",141,"F","S",9,"A piranha is an ostrich",TRUE,"F",1315,127,"7:7"
"848",9,"T","P",0,"A goldfish is orange",TRUE,"T",2428,128,"7:7"
"849",48,"T","S",0,"An anaconda is an anaconda",TRUE,"T",1402,129,"7:7"
"850",86,"F","P",9,"A blue jay has gills",TRUE,"F",1778,130,"7:7"
"851",115,"F","S",9,"A cod is a rock",TRUE,"F",1871,131,"7:7"
"852",80,"F","P",9,"A tiger shark has fur",TRUE,"F",3934,132,"7:7"
"853",22,"T","P",1,"An alligator is cold-blooded",TRUE,"T",1282,133,"7:7"
"854",41,"T","S",0,"A ferret is a ferret",TRUE,"T",763,134,"7:7"
"855",13,"T","P",1,"An eagle has wings",TRUE,"T",1323,135,"7:7"
"856",25,"T","P",2,"A robin breathes",TRUE,"T",794,136,"7:7"
"857",85,"F","P",9,"An eagle eats grass",TRUE,"F",1098,137,"7:7"
"858",118,"F","S",9,"A monitor lizard is a pigeon",TRUE,"F",3746,138,"7:7"
"859",120,"F","S",9,"An anaconda is a mockingbird",TRUE,"F",1111,139,"7:7"
"860",56,"T","S",1,"A sturgeon is a fish",TRUE,"T",1018,140,"7:7"
"861",124,"F","S",9,"A bear is a bird",TRUE,"F",2243,141,"7:7"
"862",57,"T","S",1,"A mackerel is a fish",TRUE,"T",1035,142,"7:7"
"863",131,"F","S",9,"A chameleon is a bird",TRUE,"F",1173,143,"7:7"
"864",108,"F","P",9,"A gecko has fangs",TRUE,"F",1354,144,"7:7"
"865",33,"T","P",2,"A parrotfish has muscles",TRUE,"T",3338,1,"8:8"
"866",135,"F","S",9,"A parrot is a rock",TRUE,"F",1734,2,"8:8"
"867",49,"T","S",1,"A chickadee is a bird",TRUE,"T",2062,3,"8:8"
"868",35,"T","P",2,"A cobra has blood",TRUE,"T",1499,4,"8:8"
"869",77,"F","P",9,"A moose has wings",TRUE,"F",1551,5,"8:8"
"870",48,"T","S",0,"An anaconda is an anaconda",TRUE,"T",1718,6,"8:8"
"871",85,"F","P",9,"An eagle eats grass",TRUE,"F",2030,7,"8:8"
"872",130,"F","S",9,"A komodo dragon is a mammal",TRUE,"F",2974,8,"8:8"
"873",115,"F","S",9,"A cod is a rock",FALSE,"T",1742,9,"8:8"
"874",74,"F","P",9,"A pigeon barks",TRUE,"F",1975,10,"8:8"
"875",71,"T","S",2,"A sea turtle is an animal",FALSE,"F",2406,11,"8:8"
"876",46,"T","S",0,"A monitor lizard is a monitor lizard",TRUE,"T",1998,12,"8:8"
"877",50,"T","S",1,"A sparrow is a bird",TRUE,"T",855,13,"8:8"
"878",81,"F","P",9,"A goldfish is purple",TRUE,"F",1095,14,"8:8"
"879",56,"T","S",1,"A sturgeon is a fish",FALSE,"F",1934,15,"8:8"
"880",78,"F","P",9,"A dog lays eggs",TRUE,"F",1470,16,"8:8"
"881",117,"F","S",9,"A clownfish is a mammal",TRUE,"F",2214,17,"8:8"
"882",73,"F","P",9,"A cardinal is blue",TRUE,"F",1719,18,"8:8"
"883",95,"F","P",9,"A snapping turtle has six legs",TRUE,"F",1999,19,"8:8"
"884",30,"T","P",2,"An antilope has a mouth",TRUE,"T",2735,20,"8:8"
"885",21,"T","P",1,"A catfish can swim",TRUE,"T",1479,21,"8:8"
"886",43,"T","S",0,"A cod is a cod",TRUE,"T",1111,22,"8:8"
"887",84,"F","P",9,"A crocodile is small",TRUE,"F",1392,23,"8:8"
"888",57,"T","S",1,"A mackerel is a fish",FALSE,"F",2006,24,"8:8"
"889",23,"T","P",1,"A snapping turtle has scaly skin",TRUE,"T",2638,25,"8:8"
"890",27,"T","P",2,"A chicken has a brain",TRUE,"T",1766,26,"8:8"
"891",96,"F","P",9,"A boa constrictor eats leaves",TRUE,"F",2246,27,"8:8"
"892",2,"T","P",0,"A pigeon coos",TRUE,"T",1846,28,"8:8"
"893",101,"F","P",9,"A rat has feathers",TRUE,"F",1151,29,"8:8"
"894",51,"T","S",1,"A crane is a bird",TRUE,"T",1727,30,"8:8"
"895",14,"T","P",1,"A blue jay has a beak",TRUE,"T",1743,31,"8:8"
"896",131,"F","S",9,"A chameleon is a bird",TRUE,"F",1534,32,"8:8"
"897",25,"T","P",2,"A robin breathes",TRUE,"T",1143,33,"8:8"
"898",141,"F","S",9,"A piranha is an ostrich",TRUE,"F",1911,34,"8:8"
"899",118,"F","S",9,"A monitor lizard is a pigeon",TRUE,"F",1558,35,"8:8"
"900",19,"T","P",1,"A flounder has gills",TRUE,"T",2262,36,"8:8"
"901",3,"T","P",0,"An owl is nocturnal",TRUE,"T",1662,37,"8:8"
"902",64,"T","S",2,"A lion is an animal",TRUE,"T",911,38,"8:8"
"903",16,"T","P",1,"A deer has hair",TRUE,"T",1078,39,"8:8"
"904",93,"F","P",9,"A catfish can fly",TRUE,"F",1054,40,"8:8"
"905",45,"T","S",0,"A clownfish is a clownfish",TRUE,"T",1390,41,"8:8"
"906",128,"F","S",9,"A sturgeon is a bird",TRUE,"F",1423,42,"8:8"
"907",10,"T","P",0,"A tortoise has a shell",TRUE,"T",1335,43,"8:8"
"908",121,"F","S",9,"A chickadee is a mammal",FALSE,"T",1647,44,"8:8"
"909",100,"F","P",9,"A monkey has antlers",TRUE,"F",1191,45,"8:8"
"910",12,"T","P",0,"A crocodile has sharp teeth",TRUE,"T",1374,46,"8:8"
"911",58,"T","S",1,"A komodo dragon is a reptile",TRUE,"T",1407,47,"8:8"
"912",106,"F","P",9,"A box turtle can hop",TRUE,"F",1535,48,"8:8"
"913",109,"F","S",9,"An ostrich is a pig",TRUE,"F",1774,49,"8:8"
"914",42,"T","S",0,"A fox is a fox",TRUE,"T",974,50,"8:8"
"915",137,"F","S",9,"A rabbit is a building",TRUE,"F",1311,51,"8:8"
"916",60,"T","S",1,"A rattlesnake is a reptile",TRUE,"T",1590,52,"8:8"
"917",127,"F","S",9,"A minnow is a mammal",FALSE,"T",1767,53,"8:8"
"918",79,"F","P",9,"A salmon has legs",TRUE,"F",1239,54,"8:8"
"919",97,"F","P",9,"A robin has a shell",TRUE,"F",1287,55,"8:8"
"920",36,"T","P",2,"A gecko is alive",TRUE,"T",1447,56,"8:8"
"921",142,"F","S",9,"A newt is a plane",TRUE,"F",1908,57,"8:8"
"922",24,"T","P",1,"A boa constrictor lays eggs",TRUE,"T",2135,58,"8:8"
"923",9,"T","P",0,"A goldfish is orange",TRUE,"T",1535,59,"8:8"
"924",90,"F","P",9,"A pig has scales",TRUE,"F",1246,60,"8:8"
"925",86,"F","P",9,"A blue jay has gills",FALSE,"T",1678,61,"8:8"
"926",105,"F","P",9,"A parrotfish hunts rabbits",TRUE,"F",2207,62,"8:8"
"927",89,"F","P",9,"A cat has no legs",FALSE,"T",1303,63,"8:8"
"928",18,"T","P",1,"A pig gives birth to live young",TRUE,"T",2014,64,"8:8"
"929",47,"T","S",0,"A salamander is a salamander",TRUE,"T",1686,65,"8:8"
"930",76,"F","P",9,"A squirrel has a beak",TRUE,"F",1238,66,"8:8"
"931",94,"F","P",9,"An alligator walks on two legs",TRUE,"F",1936,67,"8:8"
"932",15,"T","P",1,"A falcon can fly",TRUE,"T",1335,68,"8:8"
"933",83,"F","P",9,"A garter snake is tall",TRUE,"F",2295,69,"8:8"
"934",55,"T","S",1,"A minnow is a fish",TRUE,"T",1447,70,"8:8"
"935",82,"F","P",9,"A tortoise runs fast",TRUE,"F",1255,71,"8:8"
"936",98,"F","P",9,"A woodpecker has fingers",TRUE,"F",2071,72,"8:8"
"937",104,"F","P",9,"A barracuda is friendly",TRUE,"F",1350,73,"8:8"
"938",139,"F","S",9,"A sardine is an anaconda",TRUE,"F",1958,74,"8:8"
"939",39,"T","S",0,"A mockingbird is a mockingbird",FALSE,"F",1086,75,"8:8"
"940",17,"T","P",1,"A cat is warm-blooded",TRUE,"T",1510,76,"8:8"
"941",132,"F","S",9,"A rattlesnake is a fish",TRUE,"F",1806,77,"8:8"
"942",32,"T","P",2,"A barracuda can move",TRUE,"T",1631,78,"8:8"
"943",69,"T","S",2,"A piranha is an animal",FALSE,"F",2559,79,"8:8"
"944",28,"T","P",2,"A monkey has a heart",TRUE,"T",1143,80,"8:8"
"945",110,"F","S",9,"A penguin is a shark",TRUE,"F",2239,81,"8:8"
"946",102,"F","P",9,"An antilope is scaly",TRUE,"F",2158,82,"8:8"
"947",114,"F","S",9,"A fox is a tree",TRUE,"F",1014,83,"8:8"
"948",111,"F","S",9,"A mockingbird is an eagle",TRUE,"F",1439,84,"8:8"
"949",144,"F","S",9,"A frog is a chickadee",TRUE,"F",1246,85,"8:8"
"950",99,"F","P",9,"A chicken has sharp teeth",TRUE,"F",1566,86,"8:8"
"951",20,"T","P",1,"An angelfish has fins",TRUE,"T",1983,87,"8:8"
"952",38,"T","S",0,"A penguin is a penguin",TRUE,"T",935,88,"8:8"
"953",67,"T","S",2,"A sardine is an animal",FALSE,"F",2126,89,"8:8"
"954",75,"F","P",9,"An owl can swim",TRUE,"F",1543,90,"8:8"
"955",54,"T","S",1,"A goat is a mammal",TRUE,"T",1302,91,"8:8"
"956",112,"F","S",9,"A chipmunk is a plant",TRUE,"F",1438,92,"8:8"
"957",44,"T","S",0,"A herring is a herring",TRUE,"T",1678,93,"8:8"
"958",37,"T","S",0,"An ostrich is an ostrich",TRUE,"T",975,94,"8:8"
"959",66,"T","S",2,"A mouse is an animal",TRUE,"T",1671,95,"8:8"
"960",108,"F","P",9,"A gecko has fangs",TRUE,"F",1462,96,"8:8"
"961",5,"T","P",0,"A moose has antlers",FALSE,"F",1663,97,"8:8"
"962",133,"F","S",9,"A hummingbird is a plant",TRUE,"F",1214,98,"8:8"
"963",107,"F","P",9,"A cobra has legs",TRUE,"F",1247,99,"8:8"
"964",65,"T","S",2,"A rabbit is an animal",TRUE,"T",1558,100,"8:8"
"965",52,"T","S",1,"A bear is a mammal",TRUE,"T",1527,101,"8:8"
"966",122,"F","S",9,"A sparrow is a reptile",TRUE,"F",2454,102,"8:8"
"967",7,"T","P",0,"A salmon swims upstream",TRUE,"T",3631,103,"8:8"
"968",31,"T","P",2,"A trout can reproduce",TRUE,"T",1599,104,"8:8"
"969",134,"F","S",9,"A peacock is a sport",TRUE,"F",1191,105,"8:8"
"970",119,"F","S",9,"A salamander is a ferret",TRUE,"F",2134,106,"8:8"
"971",26,"T","P",2,"A woodpecker has eyes",TRUE,"T",1424,107,"8:8"
"972",140,"F","S",9,"A pufferfish is a fox",TRUE,"F",1723,108,"8:8"
"973",29,"T","P",2,"A rat has bones",TRUE,"T",1351,109,"8:8"
"974",136,"F","S",9,"A lion is a car",TRUE,"F",1174,110,"8:8"
"975",116,"F","S",9,"A herring is an antelope",TRUE,"F",1590,111,"8:8"
"976",138,"F","S",9,"A mouse is a leaf",TRUE,"F",1582,112,"8:8"
"977",1,"T","P",0,"A cardinal is red",TRUE,"T",1102,113,"8:8"
"978",40,"T","S",0,"A chipmunk is a chipmunk",TRUE,"T",846,114,"8:8"
"979",61,"T","S",2,"A hummingbird is an animal",FALSE,"F",1823,115,"8:8"
"980",62,"T","S",2,"A peacock is an animal",TRUE,"T",1806,116,"8:8"
"981",41,"T","S",0,"A ferret is a ferret",TRUE,"T",784,117,"8:8"
"982",8,"T","P",0,"A tiger shark is dangerous",TRUE,"T",1935,118,"8:8"
"983",34,"T","P",2,"A box turtle can see",TRUE,"T",1294,119,"8:8"
"984",92,"F","P",9,"An angelfish climbs trees",TRUE,"F",1406,120,"8:8"
"985",120,"F","S",9,"An anaconda is a mockingbird",FALSE,"T",2006,121,"8:8"
"986",80,"F","P",9,"A tiger shark has fur",TRUE,"F",1550,122,"8:8"
"987",53,"T","S",1,"A wolf is a mammal",TRUE,"T",1246,123,"8:8"
"988",4,"T","P",0,"A squirrel climbs trees",TRUE,"T",1767,124,"8:8"
"989",143,"F","S",9,"A sea turtle is a boat",TRUE,"F",2132,125,"8:8"
"990",6,"T","P",0,"A dog barks",TRUE,"T",1023,126,"8:8"
"991",123,"F","S",9,"A crane is a fish",TRUE,"F",1704,127,"8:8"
"992",72,"T","S",2,"A frog is an animal",TRUE,"T",1639,128,"8:8"
"993",88,"F","P",9,"A deer is slimy",TRUE,"F",2326,129,"8:8"
"994",68,"T","S",2,"A pufferfish is an animal",FALSE,"F",1646,130,"8:8"
"995",103,"F","P",9,"A trout is furry",TRUE,"F",1351,131,"8:8"
"996",13,"T","P",1,"An eagle has wings",TRUE,"T",862,132,"8:8"
"997",59,"T","S",1,"A chameleon is a reptile",TRUE,"T",3041,133,"8:8"
"998",126,"F","S",9,"A goat is a fish",TRUE,"F",1055,134,"8:8"
"999",63,"T","S",2,"A parrot is an animal",FALSE,"F",1789,135,"8:8"
"1000",70,"T","S",2,"A newt is an animal",TRUE,"T",2035,136,"8:8"
"1001",11,"T","P",0,"A garter snake has no legs",FALSE,"F",2126,137,"8:8"
"1002",113,"F","S",9,"A ferret is a mineral",TRUE,"F",2380,138,"8:8"
"1003",87,"F","P",9,"A falcon lives under water",TRUE,"F",3933,139,"8:8"
"1004",125,"F","S",9,"A wolf is a reptile",TRUE,"F",1208,140,"8:8"
"1005",129,"F","S",9,"A mackerel is a reptile",TRUE,"F",2676,141,"8:8"
"1006",91,"F","P",9,"A flounder can talk",TRUE,"F",1151,142,"8:8"
"1007",124,"F","S",9,"A bear is a bird",TRUE,"F",1038,143,"8:8"
"1008",22,"T","P",1,"An alligator is cold-blooded",TRUE,"T",1246,144,"8:8"
"1009",82,"F","P",9,"A tortoise runs fast",TRUE,"F",2747,1,"11:11"
"1010",26,"T","P",2,"A woodpecker has eyes",TRUE,"T",1452,2,"11:11"
"1011",83,"F","P",9,"A garter snake is tall",FALSE,"T",2321,3,"11:11"
"1012",110,"F","S",9,"A penguin is a shark",TRUE,"F",1534,4,"11:11"
"1013",10,"T","P",0,"A tortoise has a shell",TRUE,"T",1266,5,"11:11"
"1014",109,"F","S",9,"An ostrich is a pig",TRUE,"F",1250,6,"11:11"
"1015",9,"T","P",0,"A goldfish is orange",TRUE,"T",1439,7,"11:11"
"1016",2,"T","P",0,"A pigeon coos",FALSE,"F",2244,8,"11:11"
"1017",142,"F","S",9,"A newt is a plane",TRUE,"F",2078,9,"11:11"
"1018",61,"T","S",2,"A hummingbird is an animal",TRUE,"T",1133,10,"11:11"
"1019",129,"F","S",9,"A mackerel is a reptile",TRUE,"F",2093,11,"11:11"
"1020",76,"F","P",9,"A squirrel has a beak",TRUE,"F",1645,12,"11:11"
"1021",71,"T","S",2,"A sea turtle is an animal",TRUE,"T",1171,13,"11:11"
"1022",115,"F","S",9,"A cod is a rock",TRUE,"F",1754,14,"11:11"
"1023",111,"F","S",9,"A mockingbird is an eagle",TRUE,"F",1138,15,"11:11"
"1024",25,"T","P",2,"A robin breathes",TRUE,"T",1028,16,"11:11"
"1025",127,"F","S",9,"A minnow is a mammal",TRUE,"F",2986,17,"11:11"
"1026",106,"F","P",9,"A box turtle can hop",TRUE,"F",1412,18,"11:11"
"1027",13,"T","P",1,"An eagle has wings",TRUE,"T",989,19,"11:11"
"1028",33,"T","P",2,"A parrotfish has muscles",TRUE,"T",3154,20,"11:11"
"1029",21,"T","P",1,"A catfish can swim",TRUE,"T",1062,21,"11:11"
"1030",93,"F","P",9,"A catfish can fly",TRUE,"F",1137,22,"11:11"
"1031",130,"F","S",9,"A komodo dragon is a mammal",TRUE,"F",2190,23,"11:11"
"1032",4,"T","P",0,"A squirrel climbs trees",TRUE,"T",1155,24,"11:11"
"1033",124,"F","S",9,"A bear is a bird",TRUE,"F",2274,25,"11:11"
"1034",96,"F","P",9,"A boa constrictor eats leaves",TRUE,"F",2850,26,"11:11"
"1035",36,"T","P",2,"A gecko is alive",TRUE,"T",1683,27,"11:11"
"1036",79,"F","P",9,"A salmon has legs",TRUE,"F",1821,28,"11:11"
"1037",11,"T","P",0,"A garter snake has no legs",TRUE,"T",2597,29,"11:11"
"1038",18,"T","P",1,"A pig gives birth to live young",TRUE,"T",2962,30,"11:11"
"1039",81,"F","P",9,"A goldfish is purple",TRUE,"F",1101,31,"11:11"
"1040",113,"F","S",9,"A ferret is a mineral",TRUE,"F",1774,32,"11:11"
"1041",65,"T","S",2,"A rabbit is an animal",TRUE,"T",877,33,"11:11"
"1042",136,"F","S",9,"A lion is a car",TRUE,"F",1698,34,"11:11"
"1043",42,"T","S",0,"A fox is a fox",TRUE,"T",1570,35,"11:11"
"1044",121,"F","S",9,"A chickadee is a mammal",TRUE,"F",1574,36,"11:11"
"1045",123,"F","S",9,"A crane is a fish",TRUE,"F",1595,37,"11:11"
"1046",94,"F","P",9,"An alligator walks on two legs",FALSE,"T",2528,38,"11:11"
"1047",77,"F","P",9,"A moose has wings",TRUE,"F",1338,39,"11:11"
"1048",95,"F","P",9,"A snapping turtle has six legs",TRUE,"F",2831,40,"11:11"
"1049",97,"F","P",9,"A robin has a shell",TRUE,"F",1420,41,"11:11"
"1050",14,"T","P",1,"A blue jay has a beak",TRUE,"T",1141,42,"11:11"
"1051",31,"T","P",2,"A trout can reproduce",TRUE,"T",1882,43,"11:11"
"1052",141,"F","S",9,"A piranha is an ostrich",TRUE,"F",1583,44,"11:11"
"1053",51,"T","S",1,"A crane is a bird",TRUE,"T",1908,45,"11:11"
"1054",49,"T","S",1,"A chickadee is a bird",TRUE,"T",2390,46,"11:11"
"1055",138,"F","S",9,"A mouse is a leaf",TRUE,"F",2214,47,"11:11"
"1056",135,"F","S",9,"A parrot is a rock",TRUE,"F",1243,48,"11:11"
"1057",38,"T","S",0,"A penguin is a penguin",TRUE,"T",1718,49,"11:11"
"1058",92,"F","P",9,"An angelfish climbs trees",TRUE,"F",1543,50,"11:11"
"1059",24,"T","P",1,"A boa constrictor lays eggs",TRUE,"T",1754,51,"11:11"
"1060",45,"T","S",0,"A clownfish is a clownfish",TRUE,"T",1018,52,"11:11"
"1061",52,"T","S",1,"A bear is a mammal",TRUE,"T",2338,53,"11:11"
"1062",67,"T","S",2,"A sardine is an animal",TRUE,"T",1302,54,"11:11"
"1063",126,"F","S",9,"A goat is a fish",TRUE,"F",1293,55,"11:11"
"1064",72,"T","S",2,"A frog is an animal",TRUE,"T",1053,56,"11:11"
"1065",5,"T","P",0,"A moose has antlers",TRUE,"T",2031,57,"11:11"
"1066",120,"F","S",9,"An anaconda is a mockingbird",TRUE,"F",1440,58,"11:11"
"1067",128,"F","S",9,"A sturgeon is a bird",TRUE,"F",2378,59,"11:11"
"1068",58,"T","S",1,"A komodo dragon is a reptile",TRUE,"T",2715,60,"11:11"
"1069",122,"F","S",9,"A sparrow is a reptile",TRUE,"F",2329,61,"11:11"
"1070",100,"F","P",9,"A monkey has antlers",TRUE,"F",1051,62,"11:11"
"1071",28,"T","P",2,"A monkey has a heart",TRUE,"T",984,63,"11:11"
"1072",105,"F","P",9,"A parrotfish hunts rabbits",TRUE,"F",1946,64,"11:11"
"1073",132,"F","S",9,"A rattlesnake is a fish",TRUE,"F",1300,65,"11:11"
"1074",7,"T","P",0,"A salmon swims upstream",TRUE,"T",2128,66,"11:11"
"1075",27,"T","P",2,"A chicken has a brain",TRUE,"T",1018,67,"11:11"
"1076",89,"F","P",9,"A cat has no legs",TRUE,"F",1146,68,"11:11"
"1077",68,"T","S",2,"A pufferfish is an animal",TRUE,"T",1674,69,"11:11"
"1078",29,"T","P",2,"A rat has bones",TRUE,"T",2336,70,"11:11"
"1079",131,"F","S",9,"A chameleon is a bird",TRUE,"F",1746,71,"11:11"
"1080",86,"F","P",9,"A blue jay has gills",TRUE,"F",1294,72,"11:11"
"1081",19,"T","P",1,"A flounder has gills",TRUE,"T",990,73,"11:11"
"1082",140,"F","S",9,"A pufferfish is a fox",TRUE,"F",1715,74,"11:11"
"1083",117,"F","S",9,"A clownfish is a mammal",TRUE,"F",1179,75,"11:11"
"1084",85,"F","P",9,"An eagle eats grass",TRUE,"F",2909,76,"11:11"
"1085",116,"F","S",9,"A herring is an antelope",TRUE,"F",1181,77,"11:11"
"1086",99,"F","P",9,"A chicken has sharp teeth",FALSE,"T",1564,78,"11:11"
"1087",1,"T","P",0,"A cardinal is red",TRUE,"T",1556,79,"11:11"
"1088",48,"T","S",0,"An anaconda is an anaconda",TRUE,"T",1190,80,"11:11"
"1089",60,"T","S",1,"A rattlesnake is a reptile",TRUE,"T",2067,81,"11:11"
"1090",137,"F","S",9,"A rabbit is a building",TRUE,"F",1036,82,"11:11"
"1091",139,"F","S",9,"A sardine is an anaconda",TRUE,"F",1194,83,"11:11"
"1092",12,"T","P",0,"A crocodile has sharp teeth",TRUE,"T",1194,84,"11:11"
"1093",8,"T","P",0,"A tiger shark is dangerous",TRUE,"T",1398,85,"11:11"
"1094",103,"F","P",9,"A trout is furry",TRUE,"F",1171,86,"11:11"
"1095",70,"T","S",2,"A newt is an animal",TRUE,"T",1443,87,"11:11"
"1096",104,"F","P",9,"A barracuda is friendly",TRUE,"F",1927,88,"11:11"
"1097",3,"T","P",0,"An owl is nocturnal",TRUE,"T",1282,89,"11:11"
"1098",102,"F","P",9,"An antilope is scaly",TRUE,"F",1672,90,"11:11"
"1099",15,"T","P",1,"A falcon can fly",TRUE,"T",1170,91,"11:11"
"1100",143,"F","S",9,"A sea turtle is a boat",TRUE,"F",1171,92,"11:11"
"1101",84,"F","P",9,"A crocodile is small",FALSE,"T",2001,93,"11:11"
"1102",118,"F","S",9,"A monitor lizard is a pigeon",TRUE,"F",1455,94,"11:11"
"1103",101,"F","P",9,"A rat has feathers",TRUE,"F",1178,95,"11:11"
"1104",125,"F","S",9,"A wolf is a reptile",TRUE,"F",1202,96,"11:11"
"1105",63,"T","S",2,"A parrot is an animal",TRUE,"T",1019,97,"11:11"
"1106",43,"T","S",0,"A cod is a cod",TRUE,"T",635,98,"11:11"
"1107",37,"T","S",0,"An ostrich is an ostrich",TRUE,"T",962,99,"11:11"
"1108",35,"T","P",2,"A cobra has blood",TRUE,"T",998,100,"11:11"
"1109",90,"F","P",9,"A pig has scales",TRUE,"F",883,101,"11:11"
"1110",46,"T","S",0,"A monitor lizard is a monitor lizard",FALSE,"F",1391,102,"11:11"
"1111",16,"T","P",1,"A deer has hair",TRUE,"T",1438,103,"11:11"
"1112",73,"F","P",9,"A cardinal is blue",TRUE,"F",1323,104,"11:11"
"1113",80,"F","P",9,"A tiger shark has fur",TRUE,"F",1319,105,"11:11"
"1114",17,"T","P",1,"A cat is warm-blooded",TRUE,"T",2633,106,"11:11"
"1115",59,"T","S",1,"A chameleon is a reptile",FALSE,"F",1499,107,"11:11"
"1116",66,"T","S",2,"A mouse is an animal",TRUE,"T",874,108,"11:11"
"1117",87,"F","P",9,"A falcon lives under water",TRUE,"F",1267,109,"11:11"
"1118",56,"T","S",1,"A sturgeon is a fish",FALSE,"F",1458,110,"11:11"
"1119",47,"T","S",0,"A salamander is a salamander",TRUE,"T",954,111,"11:11"
"1120",55,"T","S",1,"A minnow is a fish",FALSE,"F",1092,112,"11:11"
"1121",69,"T","S",2,"A piranha is an animal",TRUE,"T",1163,113,"11:11"
"1122",6,"T","P",0,"A dog barks",TRUE,"T",962,114,"11:11"
"1123",98,"F","P",9,"A woodpecker has fingers",FALSE,"T",2406,115,"11:11"
"1124",112,"F","S",9,"A chipmunk is a plant",TRUE,"F",1301,116,"11:11"
"1125",34,"T","P",2,"A box turtle can see",TRUE,"T",2829,117,"11:11"
"1126",30,"T","P",2,"An antilope has a mouth",TRUE,"T",1250,118,"11:11"
"1127",40,"T","S",0,"A chipmunk is a chipmunk",TRUE,"T",778,119,"11:11"
"1128",22,"T","P",1,"An alligator is cold-blooded",TRUE,"T",2007,120,"11:11"
"1129",64,"T","S",2,"A lion is an animal",TRUE,"T",997,121,"11:11"
"1130",39,"T","S",0,"A mockingbird is a mockingbird",TRUE,"T",726,122,"11:11"
"1131",53,"T","S",1,"A wolf is a mammal",FALSE,"F",1236,123,"11:11"
"1132",107,"F","P",9,"A cobra has legs",FALSE,"T",938,124,"11:11"
"1133",75,"F","P",9,"An owl can swim",TRUE,"F",1141,125,"11:11"
"1134",44,"T","S",0,"A herring is a herring",TRUE,"T",819,126,"11:11"
"1135",91,"F","P",9,"A flounder can talk",TRUE,"F",1059,127,"11:11"
"1136",32,"T","P",2,"A barracuda can move",TRUE,"T",978,128,"11:11"
"1137",20,"T","P",1,"An angelfish has fins",TRUE,"T",1039,129,"11:11"
"1138",41,"T","S",0,"A ferret is a ferret",TRUE,"T",626,130,"11:11"
"1139",54,"T","S",1,"A goat is a mammal",TRUE,"T",1826,131,"11:11"
"1140",50,"T","S",1,"A sparrow is a bird",TRUE,"T",886,132,"11:11"
"1141",74,"F","P",9,"A pigeon barks",TRUE,"F",1098,133,"11:11"
"1142",23,"T","P",1,"A snapping turtle has scaly skin",TRUE,"T",1804,134,"11:11"
"1143",62,"T","S",2,"A peacock is an animal",TRUE,"T",1646,135,"11:11"
"1144",108,"F","P",9,"A gecko has fangs",TRUE,"F",1709,136,"11:11"
"1145",134,"F","S",9,"A peacock is a sport",TRUE,"F",1477,137,"11:11"
"1146",133,"F","S",9,"A hummingbird is a plant",TRUE,"F",1208,138,"11:11"
"1147",57,"T","S",1,"A mackerel is a fish",TRUE,"T",715,139,"11:11"
"1148",119,"F","S",9,"A salamander is a ferret",TRUE,"F",1074,140,"11:11"
"1149",88,"F","P",9,"A deer is slimy",TRUE,"F",1066,141,"11:11"
"1150",144,"F","S",9,"A frog is a chickadee",TRUE,"F",1090,142,"11:11"
"1151",114,"F","S",9,"A fox is a tree",TRUE,"F",890,143,"11:11"
"1152",78,"F","P",9,"A dog lays eggs",TRUE,"F",967,144,"11:11"
"1153",36,"T","P",2,"A gecko is alive",TRUE,"T",1446,1,"12:12"
"1154",98,"F","P",9,"A woodpecker has fingers",TRUE,"F",1192,2,"12:12"
"1155",35,"T","P",2,"A cobra has blood",TRUE,"T",1083,3,"12:12"
"1156",8,"T","P",0,"A tiger shark is dangerous",TRUE,"T",1013,4,"12:12"
"1157",99,"F","P",9,"A chicken has sharp teeth",TRUE,"F",763,5,"12:12"
"1158",49,"T","S",1,"A chickadee is a bird",TRUE,"T",944,6,"12:12"
"1159",112,"F","S",9,"A chipmunk is a plant",TRUE,"F",831,7,"12:12"
"1160",119,"F","S",9,"A salamander is a ferret",TRUE,"F",842,8,"12:12"
"1161",31,"T","P",2,"A trout can reproduce",TRUE,"T",1183,9,"12:12"
"1162",54,"T","S",1,"A goat is a mammal",TRUE,"T",909,10,"12:12"
"1163",144,"F","S",9,"A frog is a chickadee",TRUE,"F",797,11,"12:12"
"1164",3,"T","P",0,"An owl is nocturnal",TRUE,"T",923,12,"12:12"
"1165",6,"T","P",0,"A dog barks",TRUE,"T",774,13,"12:12"
"1166",113,"F","S",9,"A ferret is a mineral",TRUE,"F",853,14,"12:12"
"1167",87,"F","P",9,"A falcon lives under water",TRUE,"F",721,15,"12:12"
"1168",131,"F","S",9,"A chameleon is a bird",TRUE,"F",896,16,"12:12"
"1169",76,"F","P",9,"A squirrel has a beak",TRUE,"F",821,17,"12:12"
"1170",96,"F","P",9,"A boa constrictor eats leaves",TRUE,"F",1750,18,"12:12"
"1171",45,"T","S",0,"A clownfish is a clownfish",TRUE,"T",907,19,"12:12"
"1172",19,"T","P",1,"A flounder has gills",TRUE,"T",855,20,"12:12"
"1173",93,"F","P",9,"A catfish can fly",TRUE,"F",835,21,"12:12"
"1174",32,"T","P",2,"A barracuda can move",TRUE,"T",925,22,"12:12"
"1175",5,"T","P",0,"A moose has antlers",TRUE,"T",909,23,"12:12"
"1176",84,"F","P",9,"A crocodile is small",TRUE,"F",973,24,"12:12"
"1177",48,"T","S",0,"An anaconda is an anaconda",TRUE,"T",858,25,"12:12"
"1178",50,"T","S",1,"A sparrow is a bird",TRUE,"T",872,26,"12:12"
"1179",73,"F","P",9,"A cardinal is blue",FALSE,"T",1626,27,"12:12"
"1180",108,"F","P",9,"A gecko has fangs",TRUE,"F",874,28,"12:12"
"1181",62,"T","S",2,"A peacock is an animal",TRUE,"T",958,29,"12:12"
"1182",57,"T","S",1,"A mackerel is a fish",TRUE,"T",837,30,"12:12"
"1183",74,"F","P",9,"A pigeon barks",TRUE,"F",792,31,"12:12"
"1184",141,"F","S",9,"A piranha is an ostrich",TRUE,"F",1082,32,"12:12"
"1185",128,"F","S",9,"A sturgeon is a bird",TRUE,"F",1782,33,"12:12"
"1186",65,"T","S",2,"A rabbit is an animal",TRUE,"T",758,34,"12:12"
"1187",53,"T","S",1,"A wolf is a mammal",TRUE,"T",898,35,"12:12"
"1188",20,"T","P",1,"An angelfish has fins",TRUE,"T",750,36,"12:12"
"1189",125,"F","S",9,"A wolf is a reptile",TRUE,"F",800,37,"12:12"
"1190",70,"T","S",2,"A newt is an animal",FALSE,"F",680,38,"12:12"
"1191",63,"T","S",2,"A parrot is an animal",TRUE,"T",885,39,"12:12"
"1192",41,"T","S",0,"A ferret is a ferret",TRUE,"T",734,40,"12:12"
"1193",27,"T","P",2,"A chicken has a brain",TRUE,"T",868,41,"12:12"
"1194",42,"T","S",0,"A fox is a fox",TRUE,"T",691,42,"12:12"
"1195",95,"F","P",9,"A snapping turtle has six legs",TRUE,"F",1711,43,"12:12"
"1196",59,"T","S",1,"A chameleon is a reptile",TRUE,"T",994,44,"12:12"
"1197",4,"T","P",0,"A squirrel climbs trees",TRUE,"T",890,45,"12:12"
"1198",38,"T","S",0,"A penguin is a penguin",TRUE,"T",640,46,"12:12"
"1199",69,"T","S",2,"A piranha is an animal",TRUE,"T",830,47,"12:12"
"1200",132,"F","S",9,"A rattlesnake is a fish",TRUE,"F",896,48,"12:12"
"1201",102,"F","P",9,"An antilope is scaly",TRUE,"F",1565,49,"12:12"
"1202",137,"F","S",9,"A rabbit is a building",TRUE,"F",845,50,"12:12"
"1203",129,"F","S",9,"A mackerel is a reptile",TRUE,"F",826,51,"12:12"
"1204",105,"F","P",9,"A parrotfish hunts rabbits",TRUE,"F",1264,52,"12:12"
"1205",124,"F","S",9,"A bear is a bird",TRUE,"F",930,53,"12:12"
"1206",88,"F","P",9,"A deer is slimy",TRUE,"F",870,54,"12:12"
"1207",60,"T","S",1,"A rattlesnake is a reptile",FALSE,"F",3585,55,"12:12"
"1208",143,"F","S",9,"A sea turtle is a boat",TRUE,"F",1454,56,"12:12"
"1209",40,"T","S",0,"A chipmunk is a chipmunk",TRUE,"T",781,57,"12:12"
"1210",7,"T","P",0,"A salmon swims upstream",TRUE,"T",1196,58,"12:12"
"1211",55,"T","S",1,"A minnow is a fish",TRUE,"T",886,59,"12:12"
"1212",101,"F","P",9,"A rat has feathers",TRUE,"F",787,60,"12:12"
"1213",51,"T","S",1,"A crane is a bird",TRUE,"T",1630,61,"12:12"
"1214",106,"F","P",9,"A box turtle can hop",TRUE,"F",1561,62,"12:12"
"1215",33,"T","P",2,"A parrotfish has muscles",TRUE,"T",1391,63,"12:12"
"1216",44,"T","S",0,"A herring is a herring",TRUE,"T",694,64,"12:12"
"1217",64,"T","S",2,"A lion is an animal",TRUE,"T",769,65,"12:12"
"1218",100,"F","P",9,"A monkey has antlers",TRUE,"F",923,66,"12:12"
"1219",66,"T","S",2,"A mouse is an animal",TRUE,"T",878,67,"12:12"
"1220",126,"F","S",9,"A goat is a fish",TRUE,"F",763,68,"12:12"
"1221",14,"T","P",1,"A blue jay has a beak",TRUE,"T",1238,69,"12:12"
"1222",15,"T","P",1,"A falcon can fly",TRUE,"T",753,70,"12:12"
"1223",52,"T","S",1,"A bear is a mammal",TRUE,"T",687,71,"12:12"
"1224",11,"T","P",0,"A garter snake has no legs",TRUE,"T",1330,72,"12:12"
"1225",133,"F","S",9,"A hummingbird is a plant",TRUE,"F",819,73,"12:12"
"1226",109,"F","S",9,"An ostrich is a pig",TRUE,"F",1399,74,"12:12"
"1227",23,"T","P",1,"A snapping turtle has scaly skin",TRUE,"T",2505,75,"12:12"
"1228",97,"F","P",9,"A robin has a shell",TRUE,"F",898,76,"12:12"
"1229",25,"T","P",2,"A robin breathes",TRUE,"T",1048,77,"12:12"
"1230",80,"F","P",9,"A tiger shark has fur",TRUE,"F",875,78,"12:12"
"1231",75,"F","P",9,"An owl can swim",TRUE,"F",911,79,"12:12"
"1232",67,"T","S",2,"A sardine is an animal",TRUE,"T",1151,80,"12:12"
"1233",140,"F","S",9,"A pufferfish is a fox",TRUE,"F",1516,81,"12:12"
"1234",46,"T","S",0,"A monitor lizard is a monitor lizard",TRUE,"T",1122,82,"12:12"
"1235",16,"T","P",1,"A deer has hair",TRUE,"T",943,83,"12:12"
"1236",123,"F","S",9,"A crane is a fish",TRUE,"F",1595,84,"12:12"
"1237",94,"F","P",9,"An alligator walks on two legs",TRUE,"F",1293,85,"12:12"
"1238",116,"F","S",9,"A herring is an antelope",TRUE,"F",948,86,"12:12"
"1239",86,"F","P",9,"A blue jay has gills",TRUE,"F",1187,87,"12:12"
"1240",103,"F","P",9,"A trout is furry",TRUE,"F",1420,88,"12:12"
"1241",29,"T","P",2,"A rat has bones",TRUE,"T",984,89,"12:12"
"1242",81,"F","P",9,"A goldfish is purple",TRUE,"F",728,90,"12:12"
"1243",22,"T","P",1,"An alligator is cold-blooded",TRUE,"T",1052,91,"12:12"
"1244",2,"T","P",0,"A pigeon coos",TRUE,"T",933,92,"12:12"
"1245",111,"F","S",9,"A mockingbird is an eagle",TRUE,"F",829,93,"12:12"
"1246",72,"T","S",2,"A frog is an animal",TRUE,"T",1696,94,"12:12"
"1247",121,"F","S",9,"A chickadee is a mammal",FALSE,"T",1371,95,"12:12"
"1248",26,"T","P",2,"A woodpecker has eyes",TRUE,"T",992,96,"12:12"
"1249",12,"T","P",0,"A crocodile has sharp teeth",TRUE,"T",1313,97,"12:12"
"1250",10,"T","P",0,"A tortoise has a shell",TRUE,"T",810,98,"12:12"
"1251",28,"T","P",2,"A monkey has a heart",TRUE,"T",712,99,"12:12"
"1252",92,"F","P",9,"An angelfish climbs trees",TRUE,"F",735,100,"12:12"
"1253",120,"F","S",9,"An anaconda is a mockingbird",TRUE,"F",1124,101,"12:12"
"1254",114,"F","S",9,"A fox is a tree",TRUE,"F",789,102,"12:12"
"1255",1,"T","P",0,"A cardinal is red",TRUE,"T",703,103,"12:12"
"1256",85,"F","P",9,"An eagle eats grass",TRUE,"F",1314,104,"12:12"
"1257",79,"F","P",9,"A salmon has legs",TRUE,"F",834,105,"12:12"
"1258",130,"F","S",9,"A komodo dragon is a mammal",FALSE,"T",1191,106,"12:12"
"1259",82,"F","P",9,"A tortoise runs fast",TRUE,"F",1137,107,"12:12"
"1260",30,"T","P",2,"An antilope has a mouth",TRUE,"T",1526,108,"12:12"
"1261",104,"F","P",9,"A barracuda is friendly",TRUE,"F",977,109,"12:12"
"1262",61,"T","S",2,"A hummingbird is an animal",TRUE,"T",1462,110,"12:12"
"1263",58,"T","S",1,"A komodo dragon is a reptile",TRUE,"T",1174,111,"12:12"
"1264",9,"T","P",0,"A goldfish is orange",TRUE,"T",823,112,"12:12"
"1265",91,"F","P",9,"A flounder can talk",TRUE,"F",829,113,"12:12"
"1266",21,"T","P",1,"A catfish can swim",TRUE,"T",1129,114,"12:12"
"1267",136,"F","S",9,"A lion is a car",TRUE,"F",832,115,"12:12"
"1268",43,"T","S",0,"A cod is a cod",TRUE,"T",783,116,"12:12"
"1269",56,"T","S",1,"A sturgeon is a fish",TRUE,"T",1018,117,"12:12"
"1270",37,"T","S",0,"An ostrich is an ostrich",TRUE,"T",706,118,"12:12"
"1271",71,"T","S",2,"A sea turtle is an animal",TRUE,"T",1470,119,"12:12"
"1272",77,"F","P",9,"A moose has wings",TRUE,"F",792,120,"12:12"
"1273",107,"F","P",9,"A cobra has legs",TRUE,"F",956,121,"12:12"
"1274",89,"F","P",9,"A cat has no legs",TRUE,"F",1458,122,"12:12"
"1275",17,"T","P",1,"A cat is warm-blooded",TRUE,"T",1119,123,"12:12"
"1276",90,"F","P",9,"A pig has scales",TRUE,"F",902,124,"12:12"
"1277",115,"F","S",9,"A cod is a rock",TRUE,"F",1193,125,"12:12"
"1278",24,"T","P",1,"A boa constrictor lays eggs",FALSE,"F",2698,126,"12:12"
"1279",39,"T","S",0,"A mockingbird is a mockingbird",TRUE,"T",754,127,"12:12"
"1280",135,"F","S",9,"A parrot is a rock",TRUE,"F",735,128,"12:12"
"1281",68,"T","S",2,"A pufferfish is an animal",TRUE,"T",1342,129,"12:12"
"1282",83,"F","P",9,"A garter snake is tall",TRUE,"F",1169,130,"12:12"
"1283",13,"T","P",1,"An eagle has wings",TRUE,"T",898,131,"12:12"
"1284",142,"F","S",9,"A newt is a plane",TRUE,"F",943,132,"12:12"
"1285",78,"F","P",9,"A dog lays eggs",TRUE,"F",909,133,"12:12"
"1286",118,"F","S",9,"A monitor lizard is a pigeon",TRUE,"F",1490,134,"12:12"
"1287",127,"F","S",9,"A minnow is a mammal",TRUE,"F",1923,135,"12:12"
"1288",18,"T","P",1,"A pig gives birth to live young",TRUE,"T",1253,136,"12:12"
"1289",122,"F","S",9,"A sparrow is a reptile",TRUE,"F",2004,137,"12:12"
"1290",47,"T","S",0,"A salamander is a salamander",TRUE,"T",754,138,"12:12"
"1291",138,"F","S",9,"A mouse is a leaf",TRUE,"F",766,139,"12:12"
"1292",110,"F","S",9,"A penguin is a shark",TRUE,"F",831,140,"12:12"
"1293",34,"T","P",2,"A box turtle can see",TRUE,"T",1072,141,"12:12"
"1294",134,"F","S",9,"A peacock is a sport",TRUE,"F",876,142,"12:12"
"1295",117,"F","S",9,"A clownfish is a mammal",TRUE,"F",1019,143,"12:12"
"1296",139,"F","S",9,"A sardine is an anaconda",TRUE,"F",1630,144,"12:12"
"1297",93,"F","P",9,"A catfish can fly",TRUE,"F",2253,1,"13:13"
"1298",12,"T","P",0,"A crocodile has sharp teeth",TRUE,"T",1868,2,"13:13"
"1299",38,"T","S",0,"A penguin is a penguin",TRUE,"T",1671,3,"13:13"
"1300",53,"T","S",1,"A wolf is a mammal",TRUE,"T",7236,4,"13:13"
"1301",39,"T","S",0,"A mockingbird is a mockingbird",TRUE,"T",1601,5,"13:13"
"1302",21,"T","P",1,"A catfish can swim",TRUE,"T",1634,6,"13:13"
"1303",26,"T","P",2,"A woodpecker has eyes",TRUE,"T",1479,7,"13:13"
"1304",46,"T","S",0,"A monitor lizard is a monitor lizard",TRUE,"T",1968,8,"13:13"
"1305",126,"F","S",9,"A goat is a fish",TRUE,"F",1261,9,"13:13"
"1306",99,"F","P",9,"A chicken has sharp teeth",TRUE,"F",2119,10,"13:13"
"1307",87,"F","P",9,"A falcon lives under water",TRUE,"F",1647,11,"13:13"
"1308",97,"F","P",9,"A robin has a shell",TRUE,"F",1084,12,"13:13"
"1309",127,"F","S",9,"A minnow is a mammal",TRUE,"F",2957,13,"13:13"
"1310",14,"T","P",1,"A blue jay has a beak",TRUE,"T",1590,14,"13:13"
"1311",101,"F","P",9,"A rat has feathers",TRUE,"F",1704,15,"13:13"
"1312",140,"F","S",9,"A pufferfish is a fox",TRUE,"F",2396,16,"13:13"
"1313",30,"T","P",2,"An antilope has a mouth",TRUE,"T",1534,17,"13:13"
"1314",88,"F","P",9,"A deer is slimy",TRUE,"F",1143,18,"13:13"
"1315",79,"F","P",9,"A salmon has legs",TRUE,"F",986,19,"13:13"
"1316",100,"F","P",9,"A monkey has antlers",TRUE,"F",1346,20,"13:13"
"1317",142,"F","S",9,"A newt is a plane",TRUE,"F",2215,21,"13:13"
"1318",10,"T","P",0,"A tortoise has a shell",TRUE,"T",955,22,"13:13"
"1319",96,"F","P",9,"A boa constrictor eats leaves",TRUE,"F",2849,23,"13:13"
"1320",131,"F","S",9,"A chameleon is a bird",TRUE,"F",1036,24,"13:13"
"1321",62,"T","S",2,"A peacock is an animal",TRUE,"T",1126,25,"13:13"
"1322",67,"T","S",2,"A sardine is an animal",TRUE,"T",1395,26,"13:13"
"1323",32,"T","P",2,"A barracuda can move",TRUE,"T",2644,27,"13:13"
"1324",52,"T","S",1,"A bear is a mammal",TRUE,"T",4200,28,"13:13"
"1325",45,"T","S",0,"A clownfish is a clownfish",TRUE,"T",928,29,"13:13"
"1326",108,"F","P",9,"A gecko has fangs",TRUE,"F",2136,30,"13:13"
"1327",120,"F","S",9,"An anaconda is a mockingbird",TRUE,"F",1377,31,"13:13"
"1328",76,"F","P",9,"A squirrel has a beak",TRUE,"F",1238,32,"13:13"
"1329",128,"F","S",9,"A sturgeon is a bird",FALSE,"T",2351,33,"13:13"
"1330",23,"T","P",1,"A snapping turtle has scaly skin",TRUE,"T",3707,34,"13:13"
"1331",63,"T","S",2,"A parrot is an animal",TRUE,"T",974,35,"13:13"
"1332",69,"T","S",2,"A piranha is an animal",TRUE,"T",2805,36,"13:13"
"1333",80,"F","P",9,"A tiger shark has fur",TRUE,"F",1818,37,"13:13"
"1334",112,"F","S",9,"A chipmunk is a plant",TRUE,"F",1145,38,"13:13"
"1335",81,"F","P",9,"A goldfish is purple",TRUE,"F",1380,39,"13:13"
"1336",106,"F","P",9,"A box turtle can hop",TRUE,"F",1445,40,"13:13"
"1337",57,"T","S",1,"A mackerel is a fish",TRUE,"T",2450,41,"13:13"
"1338",91,"F","P",9,"A flounder can talk",TRUE,"F",930,42,"13:13"
"1339",121,"F","S",9,"A chickadee is a mammal",TRUE,"F",2767,43,"13:13"
"1340",60,"T","S",1,"A rattlesnake is a reptile",TRUE,"T",1919,44,"13:13"
"1341",125,"F","S",9,"A wolf is a reptile",TRUE,"F",944,45,"13:13"
"1342",74,"F","P",9,"A pigeon barks",TRUE,"F",968,46,"13:13"
"1343",103,"F","P",9,"A trout is furry",TRUE,"F",1025,47,"13:13"
"1344",34,"T","P",2,"A box turtle can see",TRUE,"T",1801,48,"13:13"
"1345",28,"T","P",2,"A monkey has a heart",TRUE,"T",1940,49,"13:13"
"1346",43,"T","S",0,"A cod is a cod",TRUE,"T",1511,50,"13:13"
"1347",27,"T","P",2,"A chicken has a brain",TRUE,"T",1251,51,"13:13"
"1348",144,"F","S",9,"A frog is a chickadee",TRUE,"F",1571,52,"13:13"
"1349",8,"T","P",0,"A tiger shark is dangerous",TRUE,"T",1676,53,"13:13"
"1350",141,"F","S",9,"A piranha is an ostrich",TRUE,"F",1502,54,"13:13"
"1351",48,"T","S",0,"An anaconda is an anaconda",TRUE,"T",1030,55,"13:13"
"1352",123,"F","S",9,"A crane is a fish",FALSE,"T",1270,56,"13:13"
"1353",9,"T","P",0,"A goldfish is orange",FALSE,"F",861,57,"13:13"
"1354",17,"T","P",1,"A cat is warm-blooded",TRUE,"T",2652,58,"13:13"
"1355",68,"T","S",2,"A pufferfish is an animal",TRUE,"T",1312,59,"13:13"
"1356",20,"T","P",1,"An angelfish has fins",TRUE,"T",3227,60,"13:13"
"1357",6,"T","P",0,"A dog barks",TRUE,"T",1044,61,"13:13"
"1358",71,"T","S",2,"A sea turtle is an animal",TRUE,"T",1124,62,"13:13"
"1359",25,"T","P",2,"A robin breathes",TRUE,"T",1018,63,"13:13"
"1360",116,"F","S",9,"A herring is an antelope",TRUE,"F",1651,64,"13:13"
"1361",84,"F","P",9,"A crocodile is small",TRUE,"F",1354,65,"13:13"
"1362",51,"T","S",1,"A crane is a bird",TRUE,"T",1367,66,"13:13"
"1363",3,"T","P",0,"An owl is nocturnal",TRUE,"T",1407,67,"13:13"
"1364",119,"F","S",9,"A salamander is a ferret",TRUE,"F",1136,68,"13:13"
"1365",49,"T","S",1,"A chickadee is a bird",TRUE,"T",1838,69,"13:13"
"1366",22,"T","P",1,"An alligator is cold-blooded",TRUE,"T",1869,70,"13:13"
"1367",75,"F","P",9,"An owl can swim",TRUE,"F",1084,71,"13:13"
"1368",98,"F","P",9,"A woodpecker has fingers",TRUE,"F",1712,72,"13:13"
"1369",29,"T","P",2,"A rat has bones",TRUE,"T",2173,73,"13:13"
"1370",73,"F","P",9,"A cardinal is blue",FALSE,"T",1667,74,"13:13"
"1371",31,"T","P",2,"A trout can reproduce",TRUE,"T",2627,75,"13:13"
"1372",137,"F","S",9,"A rabbit is a building",TRUE,"F",1391,76,"13:13"
"1373",13,"T","P",1,"An eagle has wings",TRUE,"T",807,77,"13:13"
"1374",41,"T","S",0,"A ferret is a ferret",TRUE,"T",849,78,"13:13"
"1375",86,"F","P",9,"A blue jay has gills",TRUE,"F",1432,79,"13:13"
"1376",83,"F","P",9,"A garter snake is tall",TRUE,"F",1882,80,"13:13"
"1377",15,"T","P",1,"A falcon can fly",TRUE,"T",795,81,"13:13"
"1378",54,"T","S",1,"A goat is a mammal",TRUE,"T",772,82,"13:13"
"1379",78,"F","P",9,"A dog lays eggs",TRUE,"F",964,83,"13:13"
"1380",64,"T","S",2,"A lion is an animal",TRUE,"T",773,84,"13:13"
"1381",72,"T","S",2,"A frog is an animal",TRUE,"T",947,85,"13:13"
"1382",77,"F","P",9,"A moose has wings",TRUE,"F",1166,86,"13:13"
"1383",24,"T","P",1,"A boa constrictor lays eggs",TRUE,"T",1075,87,"13:13"
"1384",143,"F","S",9,"A sea turtle is a boat",TRUE,"F",1118,88,"13:13"
"1385",107,"F","P",9,"A cobra has legs",TRUE,"F",947,89,"13:13"
"1386",70,"T","S",2,"A newt is an animal",TRUE,"T",1492,90,"13:13"
"1387",134,"F","S",9,"A peacock is a sport",TRUE,"F",1019,91,"13:13"
"1388",2,"T","P",0,"A pigeon coos",TRUE,"T",1210,92,"13:13"
"1389",109,"F","S",9,"An ostrich is a pig",TRUE,"F",1032,93,"13:13"
"1390",95,"F","P",9,"A snapping turtle has six legs",TRUE,"F",1989,94,"13:13"
"1391",47,"T","S",0,"A salamander is a salamander",TRUE,"T",1087,95,"13:13"
"1392",1,"T","P",0,"A cardinal is red",TRUE,"T",1100,96,"13:13"
"1393",124,"F","S",9,"A bear is a bird",TRUE,"F",1604,97,"13:13"
"1394",16,"T","P",1,"A deer has hair",FALSE,"F",2498,98,"13:13"
"1395",92,"F","P",9,"An angelfish climbs trees",TRUE,"F",1007,99,"13:13"
"1396",113,"F","S",9,"A ferret is a mineral",TRUE,"F",1322,100,"13:13"
"1397",138,"F","S",9,"A mouse is a leaf",TRUE,"F",836,101,"13:13"
"1398",111,"F","S",9,"A mockingbird is an eagle",TRUE,"F",938,102,"13:13"
"1399",61,"T","S",2,"A hummingbird is an animal",TRUE,"T",813,103,"13:13"
"1400",42,"T","S",0,"A fox is a fox",TRUE,"T",627,104,"13:13"
"1401",105,"F","P",9,"A parrotfish hunts rabbits",TRUE,"F",2104,105,"13:13"
"1402",122,"F","S",9,"A sparrow is a reptile",TRUE,"F",1611,106,"13:13"
"1403",36,"T","P",2,"A gecko is alive",TRUE,"T",1647,107,"13:13"
"1404",55,"T","S",1,"A minnow is a fish",TRUE,"T",1643,108,"13:13"
"1405",7,"T","P",0,"A salmon swims upstream",TRUE,"T",4085,109,"13:13"
"1406",135,"F","S",9,"A parrot is a rock",TRUE,"F",962,110,"13:13"
"1407",130,"F","S",9,"A komodo dragon is a mammal",TRUE,"F",2275,111,"13:13"
"1408",33,"T","P",2,"A parrotfish has muscles",TRUE,"T",2432,112,"13:13"
"1409",5,"T","P",0,"A moose has antlers",TRUE,"T",1036,113,"13:13"
"1410",85,"F","P",9,"An eagle eats grass",TRUE,"F",4129,114,"13:13"
"1411",136,"F","S",9,"A lion is a car",TRUE,"F",861,115,"13:13"
"1412",35,"T","P",2,"A cobra has blood",TRUE,"T",1403,116,"13:13"
"1413",94,"F","P",9,"An alligator walks on two legs",TRUE,"F",1981,117,"13:13"
"1414",82,"F","P",9,"A tortoise runs fast",TRUE,"F",1293,118,"13:13"
"1415",44,"T","S",0,"A herring is a herring",TRUE,"T",864,119,"13:13"
"1416",19,"T","P",1,"A flounder has gills",TRUE,"T",824,120,"13:13"
"1417",129,"F","S",9,"A mackerel is a reptile",TRUE,"F",1590,121,"13:13"
"1418",59,"T","S",1,"A chameleon is a reptile",TRUE,"T",1071,122,"13:13"
"1419",102,"F","P",9,"An antilope is scaly",TRUE,"F",2613,123,"13:13"
"1420",56,"T","S",1,"A sturgeon is a fish",TRUE,"T",3501,124,"13:13"
"1421",11,"T","P",0,"A garter snake has no legs",TRUE,"T",1545,125,"13:13"
"1422",104,"F","P",9,"A barracuda is friendly",TRUE,"F",1276,126,"13:13"
"1423",90,"F","P",9,"A pig has scales",TRUE,"F",1109,127,"13:13"
"1424",110,"F","S",9,"A penguin is a shark",TRUE,"F",1022,128,"13:13"
"1425",118,"F","S",9,"A monitor lizard is a pigeon",TRUE,"F",1324,129,"13:13"
"1426",133,"F","S",9,"A hummingbird is a plant",TRUE,"F",2240,130,"13:13"
"1427",89,"F","P",9,"A cat has no legs",TRUE,"F",1105,131,"13:13"
"1428",4,"T","P",0,"A squirrel climbs trees",TRUE,"T",1495,132,"13:13"
"1429",114,"F","S",9,"A fox is a tree",TRUE,"F",997,133,"13:13"
"1430",18,"T","P",1,"A pig gives birth to live young",TRUE,"T",4986,134,"13:13"
"1431",66,"T","S",2,"A mouse is an animal",TRUE,"T",1641,135,"13:13"
"1432",58,"T","S",1,"A komodo dragon is a reptile",TRUE,"T",2073,136,"13:13"
"1433",132,"F","S",9,"A rattlesnake is a fish",TRUE,"F",969,137,"13:13"
"1434",65,"T","S",2,"A rabbit is an animal",TRUE,"T",723,138,"13:13"
"1435",115,"F","S",9,"A cod is a rock",TRUE,"F",1433,139,"13:13"
"1436",40,"T","S",0,"A chipmunk is a chipmunk",TRUE,"T",970,140,"13:13"
"1437",139,"F","S",9,"A sardine is an anaconda",TRUE,"F",1133,141,"13:13"
"1438",50,"T","S",1,"A sparrow is a bird",TRUE,"T",1483,142,"13:13"
"1439",117,"F","S",9,"A clownfish is a mammal",TRUE,"F",1968,143,"13:13"
"1440",37,"T","S",0,"An ostrich is an ostrich",TRUE,"T",922,144,"13:13"
"1441",28,"T","P",2,"A monkey has a heart",TRUE,"T",2223,1,"14:14"
"1442",22,"T","P",1,"An alligator is cold-blooded",TRUE,"T",1504,2,"14:14"
"1443",5,"T","P",0,"A moose has antlers",TRUE,"T",980,3,"14:14"
"1444",106,"F","P",9,"A box turtle can hop",TRUE,"F",2065,4,"14:14"
"1445",113,"F","S",9,"A ferret is a mineral",TRUE,"F",1179,5,"14:14"
"1446",30,"T","P",2,"An antilope has a mouth",TRUE,"T",3654,6,"14:14"
"1447",10,"T","P",0,"A tortoise has a shell",TRUE,"T",962,7,"14:14"
"1448",40,"T","S",0,"A chipmunk is a chipmunk",TRUE,"T",1148,8,"14:14"
"1449",96,"F","P",9,"A boa constrictor eats leaves",TRUE,"F",1467,9,"14:14"
"1450",109,"F","S",9,"An ostrich is a pig",TRUE,"F",1154,10,"14:14"
"1451",48,"T","S",0,"An anaconda is an anaconda",TRUE,"T",838,11,"14:14"
"1452",100,"F","P",9,"A monkey has antlers",TRUE,"F",1600,12,"14:14"
"1453",25,"T","P",2,"A robin breathes",TRUE,"T",1232,13,"14:14"
"1454",20,"T","P",1,"An angelfish has fins",TRUE,"T",2679,14,"14:14"
"1455",26,"T","P",2,"A woodpecker has eyes",TRUE,"T",955,15,"14:14"
"1456",35,"T","P",2,"A cobra has blood",TRUE,"T",1116,16,"14:14"
"1457",9,"T","P",0,"A goldfish is orange",TRUE,"T",1697,17,"14:14"
"1458",18,"T","P",1,"A pig gives birth to live young",TRUE,"T",1660,18,"14:14"
"1459",141,"F","S",9,"A piranha is an ostrich",TRUE,"F",1204,19,"14:14"
"1460",126,"F","S",9,"A goat is a fish",TRUE,"F",1427,20,"14:14"
"1461",108,"F","P",9,"A gecko has fangs",TRUE,"F",1028,21,"14:14"
"1462",42,"T","S",0,"A fox is a fox",TRUE,"T",672,22,"14:14"
"1463",81,"F","P",9,"A goldfish is purple",TRUE,"F",1127,23,"14:14"
"1464",11,"T","P",0,"A garter snake has no legs",TRUE,"T",1465,24,"14:14"
"1465",34,"T","P",2,"A box turtle can see",TRUE,"T",1093,25,"14:14"
"1466",101,"F","P",9,"A rat has feathers",TRUE,"F",1096,26,"14:14"
"1467",58,"T","S",1,"A komodo dragon is a reptile",TRUE,"T",1218,27,"14:14"
"1468",90,"F","P",9,"A pig has scales",TRUE,"F",788,28,"14:14"
"1469",17,"T","P",1,"A cat is warm-blooded",TRUE,"T",803,29,"14:14"
"1470",8,"T","P",0,"A tiger shark is dangerous",TRUE,"T",2772,30,"14:14"
"1471",15,"T","P",1,"A falcon can fly",TRUE,"T",987,31,"14:14"
"1472",82,"F","P",9,"A tortoise runs fast",TRUE,"F",1343,32,"14:14"
"1473",127,"F","S",9,"A minnow is a mammal",TRUE,"F",2007,33,"14:14"
"1474",60,"T","S",1,"A rattlesnake is a reptile",TRUE,"T",1798,34,"14:14"
"1475",138,"F","S",9,"A mouse is a leaf",TRUE,"F",792,35,"14:14"
"1476",144,"F","S",9,"A frog is a chickadee",TRUE,"F",1182,36,"14:14"
"1477",142,"F","S",9,"A newt is a plane",TRUE,"F",997,37,"14:14"
"1478",119,"F","S",9,"A salamander is a ferret",TRUE,"F",1517,38,"14:14"
"1479",1,"T","P",0,"A cardinal is red",TRUE,"T",1157,39,"14:14"
"1480",114,"F","S",9,"A fox is a tree",TRUE,"F",1411,40,"14:14"
"1481",78,"F","P",9,"A dog lays eggs",TRUE,"F",1098,41,"14:14"
"1482",143,"F","S",9,"A sea turtle is a boat",TRUE,"F",2408,42,"14:14"
"1483",66,"T","S",2,"A mouse is an animal",TRUE,"T",1012,43,"14:14"
"1484",93,"F","P",9,"A catfish can fly",TRUE,"F",1120,44,"14:14"
"1485",24,"T","P",1,"A boa constrictor lays eggs",TRUE,"T",1631,45,"14:14"
"1486",76,"F","P",9,"A squirrel has a beak",TRUE,"F",2075,46,"14:14"
